textboxDate.text,textboxElectronicSignature.text,textboxAge.text,textboxInitials.text,sliderViewConditions.response,sliderColorScientist.response,sliderCVD.response,sliderGenderIdentification.response,mouseResponse.x,mouseResponse.y,mouseResponse.leftButton,mouseResponse.midButton,mouseResponse.rightButton,mouseResponse.time,mouseResponse.clicked_name,mouseResponseLocation,choiceColor,choiceIndex,trialsStimuli.thisRepN,trialsStimuli.thisTrialN,trialsStimuli.thisN,trialsStimuli.thisIndex,trialsStimuli.ran,File_Name,color1,color2,color3,color4,color5,color6,color7,color8,Question,date,expName,psychopyVersion,OS,frameRate,trialsBlock.thisRepN,trialsBlock.thisTrialN,trialsBlock.thisN,trialsBlock.thisIndex,trialsBlock.ran,cond_file
3/2/2022,003B2041B82B40E200185D4D2EC707574849D464,21,,1,2,2,2,0.144444444,-0.077314815,1,0,0,3.631,sixthChoice,5,"0.6, 0.043137, 0.035294",2,0,0,0,0,1,resources/test_wine.png,"0.40784, 0.070588, 0.070588","0.6, 0.043137, 0.035294","0.44887, 0.066156, 0.074042","0.49412, 0.090196, 0.062745","0.53725, 0.011765, 0.0078431","0.30196, 0.066667, 0.062745","0.35427, 0.069613, 0.067232","0.41756, 0.054997, 0.039926",What is the color of the previous image?,2022-03-02_14h06.31.911,Representative Color,2021.2.3,Win32,23.21424426,,,,,,
,,,,,,,,-0.069444444,0.184259259,1,0,0,1.7974,firstChoice,0,"0.88235, 0.33333, 0.21176",4,0,1,1,3,1,resources/test_tomato_red.png,"0.80784, 0.27451, 0.18431","0.84314, 0.21961, 0.10196","0.86089, 0.28874, 0.19361","0.88235, 0.33333, 0.21176","0.74118, 0.22745, 0.16863","0.79608, 0.21569, 0.12941","0.77439, 0.25104, 0.17647","0.85235, 0.25555, 0.14958",What is the color of the tomato in the previous image?,2022-03-02_14h06.31.911,Representative Color,2021.2.3,Win32,23.21424426,,,,,,
,,,,,,,,-0.04537037,-0.14212963,1,0,0,2.816,seventhChoice,6,"0.42745, 0.60784, 0.84314",8,0,2,2,2,1,resources/test_sky.png,"0.26275, 0.46667, 0.76863","0.2, 0.35686, 0.6902","0.27689, 0.50341, 0.83205","0.21961, 0.41176, 0.72157","0.2415, 0.43907, 0.74504","0.21025, 0.38424, 0.70588","0.35291, 0.58434, 0.85098","0.42745, 0.60784, 0.84314",What is the color of the previous image?,2022-03-02_14h06.31.911,Representative Color,2021.2.3,Win32,23.21424426,,,,,,
,,,,,,,,0.141203704,0.043055556,1,0,0,2.2623,fourthChoice,3,"0.61961, 0.64314, 0.26667",7,0,3,3,1,1,resources/test_tomato_green.png,"0.50196, 0.52941, 0.19608","0.57255, 0.58431, 0.12549","0.53942, 0.56976, 0.20711","0.6093, 0.62259, 0.12696","0.68627, 0.71373, 0.26667","0.4549, 0.49412, 0.11765","0.61961, 0.64314, 0.26667","0.37647, 0.41569, 0.12941",What is the color of the previous image?,2022-03-02_14h06.31.911,Representative Color,2021.2.3,Win32,23.21424426,,,,,,
,,,,,,,,,,,,,,,,,,,,,,,,,,,,,,,,,2022-03-02_14h06.31.911,Representative Color,2021.2.3,Win32,23.21424426,0,0,0,0,1,resources/training.xlsx
,,,,,,,,0.184722222,-0.0375,1,0,0,2.1336,sixthChoice,5,"0.60278, 0.71367, 0.87522",2,0,0,0,18,1,resources/t1sky.png,"0.38039, 0.50588, 0.72941","0.60278, 0.71367, 0.87522","0.41001, 0.54883, 0.79353","0.54118, 0.65098, 0.81961","0.48627, 0.6, 0.78824","0.39516, 0.52728, 0.76134","0.50889, 0.63012, 0.83447","0.4494, 0.57426, 0.79097",What is the color of the previous image?,2022-03-02_14h06.31.911,Representative Color,2021.2.3,Win32,23.21424426,,,,,,
,,,,,,,,0.078240741,0.168518519,1,0,0,1.4083,secondChoice,1,"0.65167, 0.63033, 0.49287",3,0,1,1,0,1,resources/t1DSC_0016.png,"0.6, 0.58039, 0.4549","0.6564, 0.64356, 0.5619","0.65167, 0.63033, 0.49287","0.60392, 0.59216, 0.50196","0.60392, 0.60392, 0.55686","0.62839, 0.6118, 0.50808","0.62574, 0.60526, 0.47382","0.60418, 0.59802, 0.5294",What is the color of the previous image?,2022-03-02_14h06.31.911,Representative Color,2021.2.3,Win32,23.21424426,,,,,,
,,,,,,,,0.062962963,0.159259259,1,0,0,1.6605,secondChoice,1,"0.55294, 0.31373, 0.19216",7,0,2,2,14,1,resources/t1Model-yl.png,"0.43529, 0.22353, 0.12157","0.48425, 0.24604, 0.13103","0.74365, 0.40389, 0.19507","0.56078, 0.26667, 0.1451","0.35294, 0.16078, 0.070588","0.6, 0.35294, 0.22353","0.55294, 0.31373, 0.19216","0.30588, 0.12549, 0.043137",What is the color of the previous image?,2022-03-02_14h06.31.911,Representative Color,2021.2.3,Win32,23.21424426,,,,,,
,,,,,,,,0.213425926,-0.064814815,1,0,0,0.9822,sixthChoice,5,"0.52941, 0.28235, 0.15294",5,0,3,3,10,1,resources/t1Model-Ol.png,"0.69412, 0.47451, 0.35294","0.7537, 0.51393, 0.381","0.75045, 0.43076, 0.25995","0.56863, 0.2902, 0.18039","0.52941, 0.28235, 0.15294","0.69412, 0.4, 0.24314","0.79608, 0.58039, 0.45098","0.58431, 0.37255, 0.24706",What is the color of the previous image?,2022-03-02_14h06.31.911,Representative Color,2021.2.3,Win32,23.21424426,,,,,,
,,,,,,,,-0.224537037,0.043055556,1,0,0,1.0242,thirdChoice,2,"0.41961, 0.20784, 0.094118",8,0,4,4,6,1,resources/t1Model-L.png,"0.52549, 0.2902, 0.16471","0.61569, 0.30588, 0.18039","0.57757, 0.31686, 0.1774","0.66902, 0.33001, 0.19272","0.47843, 0.25098, 0.13333","0.65882, 0.4, 0.25882","0.61176, 0.36078, 0.23137","0.41961, 0.20784, 0.094118",What is the color of the previous image?,2022-03-02_14h06.31.911,Representative Color,2021.2.3,Win32,23.21424426,,,,,,
,,,,,,,,0.031018519,0.170833333,1,0,0,1.8763,secondChoice,1,"0.72157, 0.47059, 0.33333",5,0,5,5,3,1,resources/t1Model-A.png,"0.60784, 0.39216, 0.26667","0.59216, 0.31765, 0.21569","0.66468, 0.4273, 0.28886","0.64755, 0.3451, 0.23286","0.72157, 0.47059, 0.33333","0.42353, 0.18824, 0.094118","0.50588, 0.29804, 0.19608","0.56078, 0.3451, 0.23529",What is the color of the previous image?,2022-03-02_14h06.31.911,Representative Color,2021.2.3,Win32,23.21424426,,,,,,
,,,,,,,,0.040740741,-0.191666667,1,0,0,1.7066,eighthChoice,7,"0.27161, 0.12707, 0.072951",6,0,6,6,9,1,resources/t1Model-O.png,"0.31765, 0.15686, 0.090196","0.36342, 0.17598, 0.098248","0.55928, 0.25965, 0.13367","0.38431, 0.14902, 0.047059","0.22745, 0.098039, 0.05098","0.27161, 0.12707, 0.072951","0.41066, 0.19954, 0.10607","0.30444, 0.12352, 0.051246",What is the color of the previous image?,2022-03-02_14h06.31.911,Representative Color,2021.2.3,Win32,23.21424426,,,,,,
,,,,,,,,0.150462963,0.040277778,1,0,0,1.3677,fourthChoice,3,"0.62375, 0.38114, 0.24213",3,0,7,7,11,1,resources/t1Model-R.png,"0.56863, 0.34902, 0.22353","0.54902, 0.27843, 0.15686","0.62375, 0.38114, 0.24213","0.60078, 0.30229, 0.16803","0.48235, 0.24314, 0.13333","0.65098, 0.41176, 0.28235","0.49412, 0.28627, 0.16471","0.54118, 0.31373, 0.19216",What is the color of the previous image?,2022-03-02_14h06.31.911,Representative Color,2021.2.3,Win32,23.21424426,,,,,,
,,,,,,,,0.19537037,-0.056018519,1,0,0,0.7691,sixthChoice,5,"0.4549, 0.23137, 0.12157",8,0,8,8,5,1,resources/t1Model-J.png,"0.74118, 0.41961, 0.23529","0.52414, 0.27049, 0.13884","0.79714, 0.44966, 0.25005","0.63529, 0.38824, 0.21569","0.70588, 0.43922, 0.2549","0.64314, 0.33725, 0.18431","0.56863, 0.32157, 0.19216","0.4549, 0.23137, 0.12157",What is the color of the previous image?,2022-03-02_14h06.31.911,Representative Color,2021.2.3,Win32,23.21424426,,,,,,
,,,,,,,,-0.096759259,0.160648148,1,0,0,1.2404,firstChoice,0,"0.33318, 0.45547, 0.20282",3,0,9,9,19,1,resources/t1zgrass.png,"0.30588, 0.41569, 0.18824","0.36341, 0.42546, 0.21823","0.33318, 0.45547, 0.20282","0.32157, 0.38039, 0.19216","0.27231, 0.37211, 0.15269","0.31422, 0.39807, 0.19031","0.34895, 0.44055, 0.21071","0.28046, 0.35484, 0.15506",What is the color of the previous image?,2022-03-02_14h06.31.911,Representative Color,2021.2.3,Win32,23.21424426,,,,,,
,,,,,,,,0.169907407,0.050462963,1,0,0,0.9813,fourthChoice,3,"0.72549, 0.51373, 0.4",1,0,10,10,8,1,resources/t1Model-M.png,"0.72549, 0.51373, 0.4","0.65098, 0.35294, 0.25098","0.78605, 0.55541, 0.43138","0.68985, 0.4335, 0.3243","0.6843, 0.46832, 0.35448","0.71971, 0.45365, 0.33937","0.73744, 0.47932, 0.37149","0.71412, 0.48874, 0.36979",What is the color of the previous image?,2022-03-02_14h06.31.911,Representative Color,2021.2.3,Win32,23.21424426,,,,,,
,,,,,,,,0.057407407,0.181944444,1,0,0,1.2782,secondChoice,1,"0.33333, 0.019608, 0.031373",6,0,11,11,2,1,resources/t1DSC_0025.png,"0.39608, 0.058824, 0.070588","0.21431, 0.034629, 0.057098","0.43656, 0.051112, 0.07439","0.51373, 0.35294, 0.40784","0.21961, 0.086275, 0.12549","0.33333, 0.019608, 0.031373","0.36078, 0.26667, 0.32157","0.48235, 0.22745, 0.26275",What is the color of the previous image?,2022-03-02_14h06.31.911,Representative Color,2021.2.3,Win32,23.21424426,,,,,,
,,,,,,,,0.038425926,0.154166667,1,0,0,1.1529,secondChoice,1,"0.5104, 0.6743, 0.13948",4,0,12,12,17,1,resources/t1zpeppers.png,"0.35294, 0.47451, 0.15294","0.48235, 0.63529, 0.13725","0.37942, 0.51262, 0.16068","0.5104, 0.6743, 0.13948","0.41176, 0.59216, 0.11373","0.417, 0.55383, 0.14817","0.38255, 0.53277, 0.1372","0.44713, 0.61369, 0.1255",What is the color of the previous image?,2022-03-02_14h06.31.911,Representative Color,2021.2.3,Win32,23.21424426,,,,,,
,,,,,,,,0.052777778,-0.132407407,1,0,0,1.3631,eighthChoice,7,"0.91794, 0.40919, 0.093393",3,0,13,13,16,1,resources/t1mysteryLightOr_hdrOff.png,"0.81569, 0.43922, 0.22353","0.8714, 0.46756, 0.23566","0.91794, 0.40919, 0.093393","0.77255, 0.29804, 0.07451","0.9098, 0.55294, 0.30196","0.88627, 0.50196, 0.23922","0.72941, 0.36471, 0.19608","0.81569, 0.36863, 0.13333",What is the color of the previous image?,2022-03-02_14h06.31.911,Representative Color,2021.2.3,Win32,23.21424426,,,,,,
,,,,,,,,0.213425926,0.080092593,1,0,0,1.1983,fourthChoice,3,"0.65882, 0.43137, 0.29412",4,0,14,14,13,1,resources/t1Model-ll.png,"0.59608, 0.36863, 0.23137","0.66275, 0.4, 0.21961","0.71741, 0.4315, 0.23453","0.65882, 0.43137, 0.29412","0.62936, 0.38426, 0.22577","0.54887, 0.3251, 0.1898","0.68099, 0.43522, 0.27061","0.58137, 0.34036, 0.18379",What is the color of the previous image?,2022-03-02_14h06.31.911,Representative Color,2021.2.3,Win32,23.21424426,,,,,,
,,,,,,,,0.043055556,-0.200462963,1,0,0,1.1969,eighthChoice,7,"0.8, 0.48235, 0.4",5,0,15,15,4,1,resources/t1Model-B.png,"0.73725, 0.54118, 0.45098","0.79859, 0.58507, 0.48676","0.72531, 0.40323, 0.30464","0.71373, 0.40784, 0.36078","0.8, 0.48235, 0.4","0.68235, 0.44314, 0.33333","0.64706, 0.45882, 0.36471","0.71765, 0.49804, 0.41176",What is the color of the previous image?,2022-03-02_14h06.31.911,Representative Color,2021.2.3,Win32,23.21424426,,,,,,
,,,,,,,,0.194907407,0.056018519,1,0,0,0.8523,fourthChoice,3,"0.21569, 0.0078431, 0.019608",7,0,16,16,1,1,resources/t1DSC_0021.png,"0.16863, 0.027451, 0.035294","0.34118, 0.023529, 0.05098","0.37836, 0.0080068, 0.055199","0.37255, 0.12157, 0.18431","0.34902, 0.043137, 0.094118","0.41569, 0.23529, 0.29804","0.21569, 0.0078431, 0.019608","0.44314, 0.16863, 0.21961",What is the color of the previous image?,2022-03-02_14h06.31.911,Representative Color,2021.2.3,Win32,23.21424426,,,,,,
,,,,,,,,0.205555556,-0.085185185,1,0,0,0.8981,sixthChoice,5,"0.80392, 0.60392, 0.49412",7,0,17,17,12,1,resources/t1Model-Y.png,"0.72941, 0.52157, 0.4","0.78972, 0.56355, 0.43105","0.64714, 0.32317, 0.22415","0.62353, 0.34902, 0.22353","0.59216, 0.29804, 0.20784","0.6902, 0.47843, 0.36471","0.80392, 0.60392, 0.49412","0.60784, 0.39216, 0.26275",What is the color of the previous image?,2022-03-02_14h06.31.911,Representative Color,2021.2.3,Win32,23.21424426,,,,,,
,,,,,,,,0.176851852,-0.049537037,1,0,0,1.1934,sixthChoice,5,"0.81569, 0.61176, 0.47843",7,0,18,18,7,1,resources/t1Model-LC.png,"0.73725, 0.52941, 0.38431","0.79679, 0.57109, 0.41322","0.66488, 0.37758, 0.19682","0.58431, 0.32157, 0.18431","0.61176, 0.34902, 0.18431","0.68627, 0.47059, 0.32941","0.81569, 0.61176, 0.47843","0.63529, 0.42353, 0.27451",What is the color of the previous image?,2022-03-02_14h06.31.911,Representative Color,2021.2.3,Win32,23.21424426,,,,,,
,,,,,,,,-0.16712963,-0.043518519,1,0,0,1.8367,fifthChoice,4,"0.76987, 0.66176, 0.16087",3,0,19,19,15,1,resources/t1green22days1_hdrOff.png,"0.68235, 0.57255, 0.20784","0.72549, 0.62353, 0.15686","0.76987, 0.66176, 0.16087","0.82745, 0.62745, 0.21569","0.70588, 0.53725, 0.12549","0.7451, 0.66275, 0.27451","0.60784, 0.52941, 0.18824","0.65098, 0.51373, 0.18824",What is the color of the previous image?,2022-03-02_14h06.31.911,Representative Color,2021.2.3,Win32,23.21424426,,,,,,
,,,,,,,,,,,,,,,,,,,,,,,,,,,,,,,,,2022-03-02_14h06.31.911,Representative Color,2021.2.3,Win32,23.21424426,0,1,1,1,1,resources/trialScramble.xlsx
,,,,,,,,0.090277778,0.176388889,1,0,0,1.237,secondChoice,1,"0.71741, 0.4315, 0.23453",3,0,0,0,13,1,resources/t2Model-ll.png,"0.59608, 0.36863, 0.23137","0.66275, 0.4, 0.21961","0.71741, 0.4315, 0.23453","0.65882, 0.43137, 0.29412","0.62936, 0.38426, 0.22577","0.54887, 0.3251, 0.1898","0.68099, 0.43522, 0.27061","0.58137, 0.34036, 0.18379",What is the color of the previous image?,2022-03-02_14h06.31.911,Representative Color,2021.2.3,Win32,23.21424426,,,,,,
,,,,,,,,-0.173148148,-0.0625,1,0,0,1.1523,fifthChoice,4,"0.80392, 0.60392, 0.49412",7,0,1,1,12,1,resources/t2Model-Y.png,"0.72941, 0.52157, 0.4","0.78972, 0.56355, 0.43105","0.64714, 0.32317, 0.22415","0.62353, 0.34902, 0.22353","0.59216, 0.29804, 0.20784","0.6902, 0.47843, 0.36471","0.80392, 0.60392, 0.49412","0.60784, 0.39216, 0.26275",What is the color of the previous image?,2022-03-02_14h06.31.911,Representative Color,2021.2.3,Win32,23.21424426,,,,,,
,,,,,,,,0.19212963,0.037962963,1,0,0,1.0267,fourthChoice,3,"0.60278, 0.71367, 0.87522",2,0,2,2,18,1,resources/t2sky.png,"0.38039, 0.50588, 0.72941","0.60278, 0.71367, 0.87522","0.41001, 0.54883, 0.79353","0.54118, 0.65098, 0.81961","0.48627, 0.6, 0.78824","0.39516, 0.52728, 0.76134","0.50889, 0.63012, 0.83447","0.4494, 0.57426, 0.79097",What is the color of the previous image?,2022-03-02_14h06.31.911,Representative Color,2021.2.3,Win32,23.21424426,,,,,,
,,,,,,,,-0.223611111,0.054166667,1,0,0,3.2493,thirdChoice,2,"0.69412, 0.47451, 0.35294",1,0,3,3,10,1,resources/t2Model-Ol.png,"0.69412, 0.47451, 0.35294","0.7537, 0.51393, 0.381","0.75045, 0.43076, 0.25995","0.56863, 0.2902, 0.18039","0.52941, 0.28235, 0.15294","0.69412, 0.4, 0.24314","0.79608, 0.58039, 0.45098","0.58431, 0.37255, 0.24706",What is the color of the previous image?,2022-03-02_14h06.31.911,Representative Color,2021.2.3,Win32,23.21424426,,,,,,
,,,,,,,,-0.038888889,-0.151388889,1,0,0,1.2804,seventhChoice,6,"0.81569, 0.61176, 0.47843",7,0,4,4,7,1,resources/t2Model-LC.png,"0.73725, 0.52941, 0.38431","0.79679, 0.57109, 0.41322","0.66488, 0.37758, 0.19682","0.58431, 0.32157, 0.18431","0.61176, 0.34902, 0.18431","0.68627, 0.47059, 0.32941","0.81569, 0.61176, 0.47843","0.63529, 0.42353, 0.27451",What is the color of the previous image?,2022-03-02_14h06.31.911,Representative Color,2021.2.3,Win32,23.21424426,,,,,,
,,,,,,,,0.175,-0.073148148,1,0,0,0.8972,sixthChoice,5,"0.78605, 0.55541, 0.43138",3,0,5,5,8,1,resources/t2Model-M.png,"0.72549, 0.51373, 0.4","0.65098, 0.35294, 0.25098","0.78605, 0.55541, 0.43138","0.68985, 0.4335, 0.3243","0.6843, 0.46832, 0.35448","0.71971, 0.45365, 0.33937","0.73744, 0.47932, 0.37149","0.71412, 0.48874, 0.36979",What is the color of the previous image?,2022-03-02_14h06.31.911,Representative Color,2021.2.3,Win32,23.21424426,,,,,,
,,,,,,,,-0.17037037,0.035648148,1,0,0,2.6062,thirdChoice,2,"0.55928, 0.25965, 0.13367",3,0,6,6,9,1,resources/t2Model-O.png,"0.31765, 0.15686, 0.090196","0.36342, 0.17598, 0.098248","0.55928, 0.25965, 0.13367","0.38431, 0.14902, 0.047059","0.22745, 0.098039, 0.05098","0.27161, 0.12707, 0.072951","0.41066, 0.19954, 0.10607","0.30444, 0.12352, 0.051246",What is the color of the previous image?,2022-03-02_14h06.31.911,Representative Color,2021.2.3,Win32,23.21424426,,,,,,
,,,,,,,,0.064814815,0.173611111,1,0,0,1.0265,secondChoice,1,"0.65098, 0.41176, 0.28235",6,0,7,7,11,1,resources/t2Model-R.png,"0.56863, 0.34902, 0.22353","0.54902, 0.27843, 0.15686","0.62375, 0.38114, 0.24213","0.60078, 0.30229, 0.16803","0.48235, 0.24314, 0.13333","0.65098, 0.41176, 0.28235","0.49412, 0.28627, 0.16471","0.54118, 0.31373, 0.19216",What is the color of the previous image?,2022-03-02_14h06.31.911,Representative Color,2021.2.3,Win32,23.21424426,,,,,,
,,,,,,,,-0.084259259,-0.206944444,1,0,0,7.7791,seventhChoice,6,"0.6564, 0.64356, 0.5619",2,0,8,8,0,1,resources/t2DSC_0016.png,"0.6, 0.58039, 0.4549","0.6564, 0.64356, 0.5619","0.65167, 0.63033, 0.49287","0.60392, 0.59216, 0.50196","0.60392, 0.60392, 0.55686","0.62839, 0.6118, 0.50808","0.62574, 0.60526, 0.47382","0.60418, 0.59802, 0.5294",What is the color of the previous image?,2022-03-02_14h06.31.911,Representative Color,2021.2.3,Win32,23.21424426,,,,,,
,,,,,,,,-0.196759259,0.070833333,1,0,0,1.276,thirdChoice,2,"0.66468, 0.4273, 0.28886",3,0,9,9,3,1,resources/t2Model-A.png,"0.60784, 0.39216, 0.26667","0.59216, 0.31765, 0.21569","0.66468, 0.4273, 0.28886","0.64755, 0.3451, 0.23286","0.72157, 0.47059, 0.33333","0.42353, 0.18824, 0.094118","0.50588, 0.29804, 0.19608","0.56078, 0.3451, 0.23529",What is the color of the previous image?,2022-03-02_14h06.31.911,Representative Color,2021.2.3,Win32,23.21424426,,,,,,
,,,,,,,,0.206944444,0.040740741,1,0,0,0.9818,fourthChoice,3,"0.4549, 0.23137, 0.12157",8,0,10,10,5,1,resources/t2Model-J.png,"0.74118, 0.41961, 0.23529","0.52414, 0.27049, 0.13884","0.79714, 0.44966, 0.25005","0.63529, 0.38824, 0.21569","0.70588, 0.43922, 0.2549","0.64314, 0.33725, 0.18431","0.56863, 0.32157, 0.19216","0.4549, 0.23137, 0.12157",What is the color of the previous image?,2022-03-02_14h06.31.911,Representative Color,2021.2.3,Win32,23.21424426,,,,,,
,,,,,,,,-0.160185185,-0.049074074,1,0,0,1.1535,fifthChoice,4,"0.34902, 0.043137, 0.094118",5,0,11,11,1,1,resources/t2DSC_0021.png,"0.16863, 0.027451, 0.035294","0.34118, 0.023529, 0.05098","0.37836, 0.0080068, 0.055199","0.37255, 0.12157, 0.18431","0.34902, 0.043137, 0.094118","0.41569, 0.23529, 0.29804","0.21569, 0.0078431, 0.019608","0.44314, 0.16863, 0.21961",What is the color of the previous image?,2022-03-02_14h06.31.911,Representative Color,2021.2.3,Win32,23.21424426,,,,,,
,,,,,,,,0.199074074,0.044907407,1,0,0,1.0231,fourthChoice,3,"0.30588, 0.41569, 0.18824",1,0,12,12,19,1,resources/t2zgrass.png,"0.30588, 0.41569, 0.18824","0.36341, 0.42546, 0.21823","0.33318, 0.45547, 0.20282","0.32157, 0.38039, 0.19216","0.27231, 0.37211, 0.15269","0.31422, 0.39807, 0.19031","0.34895, 0.44055, 0.21071","0.28046, 0.35484, 0.15506",What is the color of the previous image?,2022-03-02_14h06.31.911,Representative Color,2021.2.3,Win32,23.21424426,,,,,,
,,,,,,,,0.177777778,0.026388889,1,0,0,1.8343,fourthChoice,3,"0.88627, 0.50196, 0.23922",6,0,13,13,16,1,resources/t2mysteryLightOr_hdrOff.png,"0.81569, 0.43922, 0.22353","0.8714, 0.46756, 0.23566","0.91794, 0.40919, 0.093393","0.77255, 0.29804, 0.07451","0.9098, 0.55294, 0.30196","0.88627, 0.50196, 0.23922","0.72941, 0.36471, 0.19608","0.81569, 0.36863, 0.13333",What is the color of the previous image?,2022-03-02_14h06.31.911,Representative Color,2021.2.3,Win32,23.21424426,,,,,,
,,,,,,,,-0.143518519,-0.049074074,1,0,0,1.4104,fifthChoice,4,"0.43656, 0.051112, 0.07439",3,0,14,14,2,1,resources/t2DSC_0025.png,"0.39608, 0.058824, 0.070588","0.21431, 0.034629, 0.057098","0.43656, 0.051112, 0.07439","0.51373, 0.35294, 0.40784","0.21961, 0.086275, 0.12549","0.33333, 0.019608, 0.031373","0.36078, 0.26667, 0.32157","0.48235, 0.22745, 0.26275",What is the color of the previous image?,2022-03-02_14h06.31.911,Representative Color,2021.2.3,Win32,23.21424426,,,,,,
,,,,,,,,-0.172222222,0.052314815,1,0,0,1.4146,thirdChoice,2,"0.72549, 0.62353, 0.15686",2,0,15,15,15,1,resources/t2green22days1_hdrOff.png,"0.68235, 0.57255, 0.20784","0.72549, 0.62353, 0.15686","0.76987, 0.66176, 0.16087","0.82745, 0.62745, 0.21569","0.70588, 0.53725, 0.12549","0.7451, 0.66275, 0.27451","0.60784, 0.52941, 0.18824","0.65098, 0.51373, 0.18824",What is the color of the previous image?,2022-03-02_14h06.31.911,Representative Color,2021.2.3,Win32,23.21424426,,,,,,
,,,,,,,,-0.1875,-0.064351852,1,0,0,1.5825,fifthChoice,4,"0.30588, 0.12549, 0.043137",8,0,16,16,14,1,resources/t2Model-yl.png,"0.43529, 0.22353, 0.12157","0.48425, 0.24604, 0.13103","0.74365, 0.40389, 0.19507","0.56078, 0.26667, 0.1451","0.35294, 0.16078, 0.070588","0.6, 0.35294, 0.22353","0.55294, 0.31373, 0.19216","0.30588, 0.12549, 0.043137",What is the color of the previous image?,2022-03-02_14h06.31.911,Representative Color,2021.2.3,Win32,23.21424426,,,,,,
,,,,,,,,0.077777778,0.16712963,1,0,0,0.7679,secondChoice,1,"0.79859, 0.58507, 0.48676",2,0,17,17,4,1,resources/t2Model-B.png,"0.73725, 0.54118, 0.45098","0.79859, 0.58507, 0.48676","0.72531, 0.40323, 0.30464","0.71373, 0.40784, 0.36078","0.8, 0.48235, 0.4","0.68235, 0.44314, 0.33333","0.64706, 0.45882, 0.36471","0.71765, 0.49804, 0.41176",What is the color of the previous image?,2022-03-02_14h06.31.911,Representative Color,2021.2.3,Win32,23.21424426,,,,,,
,,,,,,,,0.162962963,0.050462963,1,0,0,2.1764,fourthChoice,3,"0.48235, 0.63529, 0.13725",2,0,18,18,17,1,resources/t2zpeppers.png,"0.35294, 0.47451, 0.15294","0.48235, 0.63529, 0.13725","0.37942, 0.51262, 0.16068","0.5104, 0.6743, 0.13948","0.41176, 0.59216, 0.11373","0.417, 0.55383, 0.14817","0.38255, 0.53277, 0.1372","0.44713, 0.61369, 0.1255",What is the color of the previous image?,2022-03-02_14h06.31.911,Representative Color,2021.2.3,Win32,23.21424426,,,,,,
,,,,,,,,-0.073148148,-0.177777778,1,0,0,2.9516,seventhChoice,6,"0.65882, 0.4, 0.25882",6,0,19,19,6,1,resources/t2Model-L.png,"0.52549, 0.2902, 0.16471","0.61569, 0.30588, 0.18039","0.57757, 0.31686, 0.1774","0.66902, 0.33001, 0.19272","0.47843, 0.25098, 0.13333","0.65882, 0.4, 0.25882","0.61176, 0.36078, 0.23137","0.41961, 0.20784, 0.094118",What is the color of the previous image?,2022-03-02_14h06.31.911,Representative Color,2021.2.3,Win32,23.21424426,,,,,,
,,,,,,,,,,,,,,,,,,,,,,,,,,,,,,,,,2022-03-02_14h06.31.911,Representative Color,2021.2.3,Win32,23.21424426,0,2,2,2,1,resources/trialSixteen.xlsx
,,,,,,,,0.058796296,0.176851852,1,0,0,1.1957,secondChoice,1,"0.81569, 0.61176, 0.47843",7,0,0,0,7,1,resources/t3Model-LC.png,"0.73725, 0.52941, 0.38431","0.79679, 0.57109, 0.41322","0.66488, 0.37758, 0.19682","0.58431, 0.32157, 0.18431","0.61176, 0.34902, 0.18431","0.68627, 0.47059, 0.32941","0.81569, 0.61176, 0.47843","0.63529, 0.42353, 0.27451",What is the color of the previous image?,2022-03-02_14h06.31.911,Representative Color,2021.2.3,Win32,23.21424426,,,,,,
,,,,,,,,0.2125,0.029166667,1,0,0,1.4109,fourthChoice,3,"0.43656, 0.051112, 0.07439",3,0,1,1,2,1,resources/t3DSC_0025.png,"0.39608, 0.058824, 0.070588","0.21431, 0.034629, 0.057098","0.43656, 0.051112, 0.07439","0.51373, 0.35294, 0.40784","0.21961, 0.086275, 0.12549","0.33333, 0.019608, 0.031373","0.36078, 0.26667, 0.32157","0.48235, 0.22745, 0.26275",What is the color of the previous image?,2022-03-02_14h06.31.911,Representative Color,2021.2.3,Win32,23.21424426,,,,,,
,,,,,,,,0.056481481,-0.1625,1,0,0,1.1074,eighthChoice,7,"0.65167, 0.63033, 0.49287",3,0,2,2,0,1,resources/t3DSC_0016.png,"0.6, 0.58039, 0.4549","0.6564, 0.64356, 0.5619","0.65167, 0.63033, 0.49287","0.60392, 0.59216, 0.50196","0.60392, 0.60392, 0.55686","0.62839, 0.6118, 0.50808","0.62574, 0.60526, 0.47382","0.60418, 0.59802, 0.5294",What is the color of the previous image?,2022-03-02_14h06.31.911,Representative Color,2021.2.3,Win32,23.21424426,,,,,,
,,,,,,,,0.202314815,0.028703704,1,0,0,1.0237,fourthChoice,3,"0.79608, 0.58039, 0.45098",7,0,3,3,10,1,resources/t3Model-Ol.png,"0.69412, 0.47451, 0.35294","0.7537, 0.51393, 0.381","0.75045, 0.43076, 0.25995","0.56863, 0.2902, 0.18039","0.52941, 0.28235, 0.15294","0.69412, 0.4, 0.24314","0.79608, 0.58039, 0.45098","0.58431, 0.37255, 0.24706",What is the color of the previous image?,2022-03-02_14h06.31.911,Representative Color,2021.2.3,Win32,23.21424426,,,,,,
,,,,,,,,0.081944444,0.155555556,1,0,0,2.0533,secondChoice,1,"0.66468, 0.4273, 0.28886",3,0,4,4,3,1,resources/t3Model-A.png,"0.60784, 0.39216, 0.26667","0.59216, 0.31765, 0.21569","0.66468, 0.4273, 0.28886","0.64755, 0.3451, 0.23286","0.72157, 0.47059, 0.33333","0.42353, 0.18824, 0.094118","0.50588, 0.29804, 0.19608","0.56078, 0.3451, 0.23529",What is the color of the previous image?,2022-03-02_14h06.31.911,Representative Color,2021.2.3,Win32,23.21424426,,,,,,
,,,,,,,,0.146759259,0.016666667,1,0,0,1.575,fourthChoice,3,"0.80392, 0.60392, 0.49412",7,0,5,5,12,1,resources/t3Model-Y.png,"0.72941, 0.52157, 0.4","0.78972, 0.56355, 0.43105","0.64714, 0.32317, 0.22415","0.62353, 0.34902, 0.22353","0.59216, 0.29804, 0.20784","0.6902, 0.47843, 0.36471","0.80392, 0.60392, 0.49412","0.60784, 0.39216, 0.26275",What is the color of the previous image?,2022-03-02_14h06.31.911,Representative Color,2021.2.3,Win32,23.21424426,,,,,,
,,,,,,,,-0.04212963,-0.165277778,1,0,0,4.6134,seventhChoice,6,"0.48425, 0.24604, 0.13103",2,0,6,6,14,1,resources/t3Model-yl.png,"0.43529, 0.22353, 0.12157","0.48425, 0.24604, 0.13103","0.74365, 0.40389, 0.19507","0.56078, 0.26667, 0.1451","0.35294, 0.16078, 0.070588","0.6, 0.35294, 0.22353","0.55294, 0.31373, 0.19216","0.30588, 0.12549, 0.043137",What is the color of the previous image?,2022-03-02_14h06.31.911,Representative Color,2021.2.3,Win32,23.21424426,,,,,,
,,,,,,,,-0.074074074,0.193981481,1,0,0,1.193,firstChoice,0,"0.8, 0.48235, 0.4",5,0,7,7,4,1,resources/t3Model-B.png,"0.73725, 0.54118, 0.45098","0.79859, 0.58507, 0.48676","0.72531, 0.40323, 0.30464","0.71373, 0.40784, 0.36078","0.8, 0.48235, 0.4","0.68235, 0.44314, 0.33333","0.64706, 0.45882, 0.36471","0.71765, 0.49804, 0.41176",What is the color of the previous image?,2022-03-02_14h06.31.911,Representative Color,2021.2.3,Win32,23.21424426,,,,,,
,,,,,,,,0.055555556,0.158796296,1,0,0,0.8952,secondChoice,1,"0.21569, 0.0078431, 0.019608",7,0,8,8,1,1,resources/t3DSC_0021.png,"0.16863, 0.027451, 0.035294","0.34118, 0.023529, 0.05098","0.37836, 0.0080068, 0.055199","0.37255, 0.12157, 0.18431","0.34902, 0.043137, 0.094118","0.41569, 0.23529, 0.29804","0.21569, 0.0078431, 0.019608","0.44314, 0.16863, 0.21961",What is the color of the previous image?,2022-03-02_14h06.31.911,Representative Color,2021.2.3,Win32,23.21424426,,,,,,
,,,,,,,,0.064351852,0.149074074,1,0,0,0.8551,secondChoice,1,"0.4549, 0.23137, 0.12157",8,0,9,9,5,1,resources/t3Model-J.png,"0.74118, 0.41961, 0.23529","0.52414, 0.27049, 0.13884","0.79714, 0.44966, 0.25005","0.63529, 0.38824, 0.21569","0.70588, 0.43922, 0.2549","0.64314, 0.33725, 0.18431","0.56863, 0.32157, 0.19216","0.4549, 0.23137, 0.12157",What is the color of the previous image?,2022-03-02_14h06.31.911,Representative Color,2021.2.3,Win32,23.21424426,,,,,,
,,,,,,,,-0.177314815,-0.046296296,1,0,0,0.7696,fifthChoice,4,"0.65882, 0.4, 0.25882",6,0,10,10,6,1,resources/t3Model-L.png,"0.52549, 0.2902, 0.16471","0.61569, 0.30588, 0.18039","0.57757, 0.31686, 0.1774","0.66902, 0.33001, 0.19272","0.47843, 0.25098, 0.13333","0.65882, 0.4, 0.25882","0.61176, 0.36078, 0.23137","0.41961, 0.20784, 0.094118",What is the color of the previous image?,2022-03-02_14h06.31.911,Representative Color,2021.2.3,Win32,23.21424426,,,,,,
,,,,,,,,0.172222222,0.035185185,1,0,0,0.9847,fourthChoice,3,"0.5104, 0.6743, 0.13948",4,0,11,11,17,1,resources/t3zpeppers.png,"0.35294, 0.47451, 0.15294","0.48235, 0.63529, 0.13725","0.37942, 0.51262, 0.16068","0.5104, 0.6743, 0.13948","0.41176, 0.59216, 0.11373","0.417, 0.55383, 0.14817","0.38255, 0.53277, 0.1372","0.44713, 0.61369, 0.1255",What is the color of the previous image?,2022-03-02_14h06.31.911,Representative Color,2021.2.3,Win32,23.21424426,,,,,,
,,,,,,,,0.154166667,-0.0375,1,0,0,1.4077,sixthChoice,5,"0.65098, 0.41176, 0.28235",6,0,12,12,11,1,resources/t3Model-R.png,"0.56863, 0.34902, 0.22353","0.54902, 0.27843, 0.15686","0.62375, 0.38114, 0.24213","0.60078, 0.30229, 0.16803","0.48235, 0.24314, 0.13333","0.65098, 0.41176, 0.28235","0.49412, 0.28627, 0.16471","0.54118, 0.31373, 0.19216",What is the color of the previous image?,2022-03-02_14h06.31.911,Representative Color,2021.2.3,Win32,23.21424426,,,,,,
,,,,,,,,0.050462963,-0.188888889,1,0,0,3.2863,eighthChoice,7,"0.60784, 0.52941, 0.18824",7,0,13,13,15,1,resources/t3green22days1_hdrOff.png,"0.68235, 0.57255, 0.20784","0.72549, 0.62353, 0.15686","0.76987, 0.66176, 0.16087","0.82745, 0.62745, 0.21569","0.70588, 0.53725, 0.12549","0.7451, 0.66275, 0.27451","0.60784, 0.52941, 0.18824","0.65098, 0.51373, 0.18824",What is the color of the previous image?,2022-03-02_14h06.31.911,Representative Color,2021.2.3,Win32,23.21424426,,,,,,
,,,,,,,,-0.155555556,0.027777778,1,0,0,1.9165,thirdChoice,2,"0.28046, 0.35484, 0.15506",8,0,14,14,19,1,resources/t3zgrass.png,"0.30588, 0.41569, 0.18824","0.36341, 0.42546, 0.21823","0.33318, 0.45547, 0.20282","0.32157, 0.38039, 0.19216","0.27231, 0.37211, 0.15269","0.31422, 0.39807, 0.19031","0.34895, 0.44055, 0.21071","0.28046, 0.35484, 0.15506",What is the color of the previous image?,2022-03-02_14h06.31.911,Representative Color,2021.2.3,Win32,23.21424426,,,,,,
,,,,,,,,-0.069444444,-0.191666667,1,0,0,2.738,seventhChoice,6,"0.71741, 0.4315, 0.23453",3,0,15,15,13,1,resources/t3Model-ll.png,"0.59608, 0.36863, 0.23137","0.66275, 0.4, 0.21961","0.71741, 0.4315, 0.23453","0.65882, 0.43137, 0.29412","0.62936, 0.38426, 0.22577","0.54887, 0.3251, 0.1898","0.68099, 0.43522, 0.27061","0.58137, 0.34036, 0.18379",What is the color of the previous image?,2022-03-02_14h06.31.911,Representative Color,2021.2.3,Win32,23.21424426,,,,,,
,,,,,,,,-0.060185185,0.156481481,1,0,0,1.1986,firstChoice,0,"0.60278, 0.71367, 0.87522",2,0,16,16,18,1,resources/t3sky.png,"0.38039, 0.50588, 0.72941","0.60278, 0.71367, 0.87522","0.41001, 0.54883, 0.79353","0.54118, 0.65098, 0.81961","0.48627, 0.6, 0.78824","0.39516, 0.52728, 0.76134","0.50889, 0.63012, 0.83447","0.4494, 0.57426, 0.79097",What is the color of the previous image?,2022-03-02_14h06.31.911,Representative Color,2021.2.3,Win32,23.21424426,,,,,,
,,,,,,,,0.180555556,0.038888889,1,0,0,0.7274,fourthChoice,3,"0.78605, 0.55541, 0.43138",3,0,17,17,8,1,resources/t3Model-M.png,"0.72549, 0.51373, 0.4","0.65098, 0.35294, 0.25098","0.78605, 0.55541, 0.43138","0.68985, 0.4335, 0.3243","0.6843, 0.46832, 0.35448","0.71971, 0.45365, 0.33937","0.73744, 0.47932, 0.37149","0.71412, 0.48874, 0.36979",What is the color of the previous image?,2022-03-02_14h06.31.911,Representative Color,2021.2.3,Win32,23.21424426,,,,,,
,,,,,,,,0.071759259,0.164351852,1,0,0,1.149,secondChoice,1,"0.91794, 0.40919, 0.093393",3,0,18,18,16,1,resources/t3mysteryLightOr_hdrOff.png,"0.81569, 0.43922, 0.22353","0.8714, 0.46756, 0.23566","0.91794, 0.40919, 0.093393","0.77255, 0.29804, 0.07451","0.9098, 0.55294, 0.30196","0.88627, 0.50196, 0.23922","0.72941, 0.36471, 0.19608","0.81569, 0.36863, 0.13333",What is the color of the previous image?,2022-03-02_14h06.31.911,Representative Color,2021.2.3,Win32,23.21424426,,,,,,
,,,,,,,,-0.036111111,0.160185185,1,0,0,2.2612,firstChoice,0,"0.30444, 0.12352, 0.051246",8,0,19,19,9,1,resources/t3Model-O.png,"0.31765, 0.15686, 0.090196","0.36342, 0.17598, 0.098248","0.55928, 0.25965, 0.13367","0.38431, 0.14902, 0.047059","0.22745, 0.098039, 0.05098","0.27161, 0.12707, 0.072951","0.41066, 0.19954, 0.10607","0.30444, 0.12352, 0.051246",What is the color of the previous image?,2022-03-02_14h06.31.911,Representative Color,2021.2.3,Win32,23.21424426,,,,,,
,,,,,,,,,,,,,,,,,,,,,,,,,,,,,,,,,2022-03-02_14h06.31.911,Representative Color,2021.2.3,Win32,23.21424426,0,3,3,3,1,resources/trialSixtyFour.xlsx
,,,,,,,,-0.177314815,0.05787037,1,0,0,0.9761,thirdChoice,2,"0.91794, 0.40919, 0.093393",3,0,0,0,16,1,resources/t4mysteryLightOr_hdrOff.png,"0.81569, 0.43922, 0.22353","0.8714, 0.46756, 0.23566","0.91794, 0.40919, 0.093393","0.77255, 0.29804, 0.07451","0.9098, 0.55294, 0.30196","0.88627, 0.50196, 0.23922","0.72941, 0.36471, 0.19608","0.81569, 0.36863, 0.13333",What is the color of the tomato in the previous image?,2022-03-02_14h06.31.911,Representative Color,2021.2.3,Win32,23.21424426,,,,,,
,,,,,,,,0.099537037,0.183333333,1,0,0,2.8166,secondChoice,1,"0.54118, 0.65098, 0.81961",4,0,1,1,18,1,resources/t4sky.png,"0.38039, 0.50588, 0.72941","0.60278, 0.71367, 0.87522","0.41001, 0.54883, 0.79353","0.54118, 0.65098, 0.81961","0.48627, 0.6, 0.78824","0.39516, 0.52728, 0.76134","0.50889, 0.63012, 0.83447","0.4494, 0.57426, 0.79097",What is the color of the sky in the previous image?,2022-03-02_14h06.31.911,Representative Color,2021.2.3,Win32,23.21424426,,,,,,
,,,,,,,,0.17037037,-0.030555556,1,0,0,2.2625,sixthChoice,5,"0.65167, 0.63033, 0.49287",3,0,2,2,0,1,resources/t4DSC_0016.png,"0.6, 0.58039, 0.4549","0.6564, 0.64356, 0.5619","0.65167, 0.63033, 0.49287","0.60392, 0.59216, 0.50196","0.60392, 0.60392, 0.55686","0.62839, 0.6118, 0.50808","0.62574, 0.60526, 0.47382","0.60418, 0.59802, 0.5294",What is the color of the wine in the previous image?,2022-03-02_14h06.31.911,Representative Color,2021.2.3,Win32,23.21424426,,,,,,
,,,,,,,,-0.036111111,-0.154166667,1,0,0,1.9214,seventhChoice,6,"0.37836, 0.0080068, 0.055199",3,0,3,3,1,1,resources/t4DSC_0021.png,"0.16863, 0.027451, 0.035294","0.34118, 0.023529, 0.05098","0.37836, 0.0080068, 0.055199","0.37255, 0.12157, 0.18431","0.34902, 0.043137, 0.094118","0.41569, 0.23529, 0.29804","0.21569, 0.0078431, 0.019608","0.44314, 0.16863, 0.21961",What is the color of the wine in the previous image?,2022-03-02_14h06.31.911,Representative Color,2021.2.3,Win32,23.21424426,,,,,,
,,,,,,,,0.053240741,0.190277778,1,0,0,3.4152,secondChoice,1,"0.22745, 0.098039, 0.05098",5,0,4,4,9,1,resources/t4Model-O.png,"0.31765, 0.15686, 0.090196","0.36342, 0.17598, 0.098248","0.55928, 0.25965, 0.13367","0.38431, 0.14902, 0.047059","0.22745, 0.098039, 0.05098","0.27161, 0.12707, 0.072951","0.41066, 0.19954, 0.10607","0.30444, 0.12352, 0.051246",What is the color of the person's skin in the previous image?,2022-03-02_14h06.31.911,Representative Color,2021.2.3,Win32,23.21424426,,,,,,
,,,,,,,,-0.15462963,0.027777778,1,0,0,1.7924,thirdChoice,2,"0.72549, 0.62353, 0.15686",2,0,5,5,15,1,resources/t4green22days1_hdrOff.png,"0.68235, 0.57255, 0.20784","0.72549, 0.62353, 0.15686","0.76987, 0.66176, 0.16087","0.82745, 0.62745, 0.21569","0.70588, 0.53725, 0.12549","0.7451, 0.66275, 0.27451","0.60784, 0.52941, 0.18824","0.65098, 0.51373, 0.18824",What is the color of the tomato in the previous image?,2022-03-02_14h06.31.911,Representative Color,2021.2.3,Win32,23.21424426,,,,,,
,,,,,,,,-0.165277778,-0.058796296,1,0,0,1.4949,fifthChoice,4,"0.73725, 0.54118, 0.45098",1,0,6,6,4,1,resources/t4Model-B.png,"0.73725, 0.54118, 0.45098","0.79859, 0.58507, 0.48676","0.72531, 0.40323, 0.30464","0.71373, 0.40784, 0.36078","0.8, 0.48235, 0.4","0.68235, 0.44314, 0.33333","0.64706, 0.45882, 0.36471","0.71765, 0.49804, 0.41176",What is the color of the person's skin in the previous image?,2022-03-02_14h06.31.911,Representative Color,2021.2.3,Win32,23.21424426,,,,,,
,,,,,,,,0.200462963,0.029166667,1,0,0,0.6837,fourthChoice,3,"0.80392, 0.60392, 0.49412",7,0,7,7,12,1,resources/t4Model-Y.png,"0.72941, 0.52157, 0.4","0.78972, 0.56355, 0.43105","0.64714, 0.32317, 0.22415","0.62353, 0.34902, 0.22353","0.59216, 0.29804, 0.20784","0.6902, 0.47843, 0.36471","0.80392, 0.60392, 0.49412","0.60784, 0.39216, 0.26275",What is the color of the person's skin in the previous image?,2022-03-02_14h06.31.911,Representative Color,2021.2.3,Win32,23.21424426,,,,,,
,,,,,,,,0.167592593,0.052777778,1,0,0,0.9839,fourthChoice,3,"0.43656, 0.051112, 0.07439",3,0,8,8,2,1,resources/t4DSC_0025.png,"0.39608, 0.058824, 0.070588","0.21431, 0.034629, 0.057098","0.43656, 0.051112, 0.07439","0.51373, 0.35294, 0.40784","0.21961, 0.086275, 0.12549","0.33333, 0.019608, 0.031373","0.36078, 0.26667, 0.32157","0.48235, 0.22745, 0.26275",What is the color of the wine in the previous image?,2022-03-02_14h06.31.911,Representative Color,2021.2.3,Win32,23.21424426,,,,,,
,,,,,,,,-0.139351852,0.056944444,1,0,0,1.0666,thirdChoice,2,"0.79608, 0.58039, 0.45098",7,0,9,9,10,1,resources/t4Model-Ol.png,"0.69412, 0.47451, 0.35294","0.7537, 0.51393, 0.381","0.75045, 0.43076, 0.25995","0.56863, 0.2902, 0.18039","0.52941, 0.28235, 0.15294","0.69412, 0.4, 0.24314","0.79608, 0.58039, 0.45098","0.58431, 0.37255, 0.24706",What is the color of the person's skin in the previous image?,2022-03-02_14h06.31.911,Representative Color,2021.2.3,Win32,23.21424426,,,,,,
,,,,,,,,0.191666667,0.025925926,1,0,0,2.1352,fourthChoice,3,"0.43529, 0.22353, 0.12157",1,0,10,10,14,1,resources/t4Model-yl.png,"0.43529, 0.22353, 0.12157","0.48425, 0.24604, 0.13103","0.74365, 0.40389, 0.19507","0.56078, 0.26667, 0.1451","0.35294, 0.16078, 0.070588","0.6, 0.35294, 0.22353","0.55294, 0.31373, 0.19216","0.30588, 0.12549, 0.043137",What is the color of the person's skin in the previous image?,2022-03-02_14h06.31.911,Representative Color,2021.2.3,Win32,23.21424426,,,,,,
,,,,,,,,-0.139351852,-0.056944444,1,0,0,2.2245,fifthChoice,4,"0.73725, 0.52941, 0.38431",1,0,11,11,7,1,resources/t4Model-LC.png,"0.73725, 0.52941, 0.38431","0.79679, 0.57109, 0.41322","0.66488, 0.37758, 0.19682","0.58431, 0.32157, 0.18431","0.61176, 0.34902, 0.18431","0.68627, 0.47059, 0.32941","0.81569, 0.61176, 0.47843","0.63529, 0.42353, 0.27451",What is the color of the person's skin in the previous image?,2022-03-02_14h06.31.911,Representative Color,2021.2.3,Win32,23.21424426,,,,,,
,,,,,,,,0.048611111,0.178240741,1,0,0,1.1095,secondChoice,1,"0.66275, 0.4, 0.21961",2,0,12,12,13,1,resources/t4Model-ll.png,"0.59608, 0.36863, 0.23137","0.66275, 0.4, 0.21961","0.71741, 0.4315, 0.23453","0.65882, 0.43137, 0.29412","0.62936, 0.38426, 0.22577","0.54887, 0.3251, 0.1898","0.68099, 0.43522, 0.27061","0.58137, 0.34036, 0.18379",What is the color of the person's skin in the previous image?,2022-03-02_14h06.31.911,Representative Color,2021.2.3,Win32,23.21424426,,,,,,
,,,,,,,,0.085648148,0.161574074,1,0,0,1.0251,secondChoice,1,"0.65882, 0.4, 0.25882",6,0,13,13,6,1,resources/t4Model-L.png,"0.52549, 0.2902, 0.16471","0.61569, 0.30588, 0.18039","0.57757, 0.31686, 0.1774","0.66902, 0.33001, 0.19272","0.47843, 0.25098, 0.13333","0.65882, 0.4, 0.25882","0.61176, 0.36078, 0.23137","0.41961, 0.20784, 0.094118",What is the color of the person's skin in the previous image?,2022-03-02_14h06.31.911,Representative Color,2021.2.3,Win32,23.21424426,,,,,,
,,,,,,,,0.0875,0.17037037,1,0,0,1.3241,secondChoice,1,"0.62375, 0.38114, 0.24213",3,0,14,14,11,1,resources/t4Model-R.png,"0.56863, 0.34902, 0.22353","0.54902, 0.27843, 0.15686","0.62375, 0.38114, 0.24213","0.60078, 0.30229, 0.16803","0.48235, 0.24314, 0.13333","0.65098, 0.41176, 0.28235","0.49412, 0.28627, 0.16471","0.54118, 0.31373, 0.19216",What is the color of the person's skin in the previous image?,2022-03-02_14h06.31.911,Representative Color,2021.2.3,Win32,23.21424426,,,,,,
,,,,,,,,0.205555556,-0.055555556,1,0,0,1.3619,sixthChoice,5,"0.4549, 0.23137, 0.12157",8,0,15,15,5,1,resources/t4Model-J.png,"0.74118, 0.41961, 0.23529","0.52414, 0.27049, 0.13884","0.79714, 0.44966, 0.25005","0.63529, 0.38824, 0.21569","0.70588, 0.43922, 0.2549","0.64314, 0.33725, 0.18431","0.56863, 0.32157, 0.19216","0.4549, 0.23137, 0.12157",What is the color of the person's skin in the previous image?,2022-03-02_14h06.31.911,Representative Color,2021.2.3,Win32,23.21424426,,,,,,
,,,,,,,,0.049074074,0.155092593,1,0,0,2.0498,secondChoice,1,"0.32157, 0.38039, 0.19216",4,0,16,16,19,1,resources/t4zgrass.png,"0.30588, 0.41569, 0.18824","0.36341, 0.42546, 0.21823","0.33318, 0.45547, 0.20282","0.32157, 0.38039, 0.19216","0.27231, 0.37211, 0.15269","0.31422, 0.39807, 0.19031","0.34895, 0.44055, 0.21071","0.28046, 0.35484, 0.15506",What is the color of the grass in the previous image?,2022-03-02_14h06.31.911,Representative Color,2021.2.3,Win32,23.21424426,,,,,,
,,,,,,,,-0.181944444,0.035185185,1,0,0,1.2796,thirdChoice,2,"0.56078, 0.3451, 0.23529",8,0,17,17,3,1,resources/t4Model-A.png,"0.60784, 0.39216, 0.26667","0.59216, 0.31765, 0.21569","0.66468, 0.4273, 0.28886","0.64755, 0.3451, 0.23286","0.72157, 0.47059, 0.33333","0.42353, 0.18824, 0.094118","0.50588, 0.29804, 0.19608","0.56078, 0.3451, 0.23529",What is the color of the person's skin in the previous image?,2022-03-02_14h06.31.911,Representative Color,2021.2.3,Win32,23.21424426,,,,,,
,,,,,,,,0.049537037,0.144907407,1,0,0,3.4134,secondChoice,1,"0.73744, 0.47932, 0.37149",7,0,18,18,8,1,resources/t4Model-M.png,"0.72549, 0.51373, 0.4","0.65098, 0.35294, 0.25098","0.78605, 0.55541, 0.43138","0.68985, 0.4335, 0.3243","0.6843, 0.46832, 0.35448","0.71971, 0.45365, 0.33937","0.73744, 0.47932, 0.37149","0.71412, 0.48874, 0.36979",What is the color of the person's skin in the previous image?,2022-03-02_14h06.31.911,Representative Color,2021.2.3,Win32,23.21424426,,,,,,
,,,,,,,,0.085648148,0.16712963,1,0,0,1.1547,secondChoice,1,"0.5104, 0.6743, 0.13948",4,0,19,19,17,1,resources/t4zpeppers.png,"0.35294, 0.47451, 0.15294","0.48235, 0.63529, 0.13725","0.37942, 0.51262, 0.16068","0.5104, 0.6743, 0.13948","0.41176, 0.59216, 0.11373","0.417, 0.55383, 0.14817","0.38255, 0.53277, 0.1372","0.44713, 0.61369, 0.1255",What is the color of the peppers in the previous image?,2022-03-02_14h06.31.911,Representative Color,2021.2.3,Win32,23.21424426,,,,,,
,,,,,,,,,,,,,,,,,,,,,,,,,,,,,,,,,2022-03-02_14h06.31.911,Representative Color,2021.2.3,Win32,23.21424426,0,4,4,4,1,resources/trialFull.xlsx
