textboxDate.text,textboxElectronicSignature.text,textboxAge.text,textboxInitials.text,sliderViewConditions.response,sliderColorScientist.response,sliderCVD.response,sliderGenderIdentification.response,mouseResponse.x,mouseResponse.y,mouseResponse.leftButton,mouseResponse.midButton,mouseResponse.rightButton,mouseResponse.time,mouseResponse.clicked_name,mouseResponseLocation,choiceColor,choiceIndex,trialsStimuli.thisRepN,trialsStimuli.thisTrialN,trialsStimuli.thisN,trialsStimuli.thisIndex,trialsStimuli.ran,File_Name,color1,color2,color3,color4,color5,color6,color7,color8,Question,participant,session,date,expName,psychopyVersion,OS,frameRate,trialsBlock.thisRepN,trialsBlock.thisTrialN,trialsBlock.thisN,trialsBlock.thisIndex,trialsBlock.ran,cond_file
,,,,,,,,0.185185185,-0.075,1,0,0,0.4218,sixthChoice,5,"0.37647, 0.41569, 0.12941",8,0,0,0,1,1,resources/test_tomato_green.png,"0.50196, 0.52941, 0.19608","0.57255, 0.58431, 0.12549","0.53942, 0.56976, 0.20711","0.6093, 0.62259, 0.12696","0.68627, 0.71373, 0.26667","0.4549, 0.49412, 0.11765","0.61961, 0.64314, 0.26667","0.37647, 0.41569, 0.12941",What is the color of the previous image?,3028,001,2022-02-17_13h49.49.228,Representative Color,2021.2.3,Win32,142.2070535,,,,,,
,,,,,,,,0.185185185,-0.075,1,0,0,0.2148,sixthChoice,5,"0.35427, 0.069613, 0.067232",7,0,1,1,0,1,resources/test_wine.png,"0.40784, 0.070588, 0.070588","0.6, 0.043137, 0.035294","0.44887, 0.066156, 0.074042","0.49412, 0.090196, 0.062745","0.53725, 0.011765, 0.0078431","0.30196, 0.066667, 0.062745","0.35427, 0.069613, 0.067232","0.41756, 0.054997, 0.039926",What is the color of the previous image?,3028,001,2022-02-17_13h49.49.228,Representative Color,2021.2.3,Win32,142.2070535,,,,,,
,,,,,,,,0.185185185,-0.075,1,0,0,0.2419,sixthChoice,5,"0.27689, 0.50341, 0.83205",3,0,2,2,2,1,resources/test_sky.png,"0.26275, 0.46667, 0.76863","0.2, 0.35686, 0.6902","0.27689, 0.50341, 0.83205","0.21961, 0.41176, 0.72157","0.2415, 0.43907, 0.74504","0.21025, 0.38424, 0.70588","0.35291, 0.58434, 0.85098","0.42745, 0.60784, 0.84314",What is the color of the previous image?,3028,001,2022-02-17_13h49.49.228,Representative Color,2021.2.3,Win32,142.2070535,,,,,,
,,,,,,,,0.185185185,-0.075,1,0,0,0.213,sixthChoice,5,"0.77439, 0.25104, 0.17647",7,0,3,3,3,1,resources/test_tomato_red.png,"0.80784, 0.27451, 0.18431","0.84314, 0.21961, 0.10196","0.86089, 0.28874, 0.19361","0.88235, 0.33333, 0.21176","0.74118, 0.22745, 0.16863","0.79608, 0.21569, 0.12941","0.77439, 0.25104, 0.17647","0.85235, 0.25555, 0.14958",What is the color of the tomato in the previous image?,3028,001,2022-02-17_13h49.49.228,Representative Color,2021.2.3,Win32,142.2070535,,,,,,
,,,,,,,,,,,,,,,,,,,,,,,,,,,,,,,,,3028,001,2022-02-17_13h49.49.228,Representative Color,2021.2.3,Win32,142.2070535,0,0,0,0,1,resources/training.xlsx
,,,,,,,,-0.155555556,-0.181481481,1,0,0,0.2628,seventhChoice,6,"0.61176, 0.36078, 0.23137",7,0,0,0,6,1,resources/t1Model-L.png,"0.52549, 0.2902, 0.16471","0.61569, 0.30588, 0.18039","0.57757, 0.31686, 0.1774","0.66902, 0.33001, 0.19272","0.47843, 0.25098, 0.13333","0.65882, 0.4, 0.25882","0.61176, 0.36078, 0.23137","0.41961, 0.20784, 0.094118",What is the color of the previous image?,3028,001,2022-02-17_13h49.49.228,Representative Color,2021.2.3,Win32,142.2070535,,,,,,
,,,,,,,,-0.066666667,-0.189814815,1,0,0,0.2055,seventhChoice,6,"0.50889, 0.63012, 0.83447",7,0,1,1,18,1,resources/t1sky.png,"0.38039, 0.50588, 0.72941","0.60278, 0.71367, 0.87522","0.41001, 0.54883, 0.79353","0.54118, 0.65098, 0.81961","0.48627, 0.6, 0.78824","0.39516, 0.52728, 0.76134","0.50889, 0.63012, 0.83447","0.4494, 0.57426, 0.79097",What is the color of the previous image?,3028,001,2022-02-17_13h49.49.228,Representative Color,2021.2.3,Win32,142.2070535,,,,,,
,,,,,,,,-0.066666667,-0.189814815,1,0,0,0.1101,seventhChoice,6,"0.6843, 0.46832, 0.35448",5,0,2,2,8,1,resources/t1Model-M.png,"0.72549, 0.51373, 0.4","0.65098, 0.35294, 0.25098","0.78605, 0.55541, 0.43138","0.68985, 0.4335, 0.3243","0.6843, 0.46832, 0.35448","0.71971, 0.45365, 0.33937","0.73744, 0.47932, 0.37149","0.71412, 0.48874, 0.36979",What is the color of the previous image?,3028,001,2022-02-17_13h49.49.228,Representative Color,2021.2.3,Win32,142.2070535,,,,,,
,,,,,,,,-0.066666667,-0.189814815,1,0,0,0.2437,seventhChoice,6,"0.28046, 0.35484, 0.15506",8,0,3,3,19,1,resources/t1zgrass.png,"0.30588, 0.41569, 0.18824","0.36341, 0.42546, 0.21823","0.33318, 0.45547, 0.20282","0.32157, 0.38039, 0.19216","0.27231, 0.37211, 0.15269","0.31422, 0.39807, 0.19031","0.34895, 0.44055, 0.21071","0.28046, 0.35484, 0.15506",What is the color of the previous image?,3028,001,2022-02-17_13h49.49.228,Representative Color,2021.2.3,Win32,142.2070535,,,,,,
,,,,,,,,-0.066666667,-0.189814815,1,0,0,10.7074,seventhChoice,6,"0.66275, 0.4, 0.21961",2,0,4,4,13,1,resources/t1Model-ll.png,"0.59608, 0.36863, 0.23137","0.66275, 0.4, 0.21961","0.71741, 0.4315, 0.23453","0.65882, 0.43137, 0.29412","0.62936, 0.38426, 0.22577","0.54887, 0.3251, 0.1898","0.68099, 0.43522, 0.27061","0.58137, 0.34036, 0.18379",What is the color of the previous image?,3028,001,2022-02-17_13h49.49.228,Representative Color,2021.2.3,Win32,142.2070535,,,,,,
,,,,,,,,-0.066666667,-0.189814815,1,0,0,0.4652,seventhChoice,6,"0.72941, 0.52157, 0.4",1,0,5,5,12,1,resources/t1Model-Y.png,"0.72941, 0.52157, 0.4","0.78972, 0.56355, 0.43105","0.64714, 0.32317, 0.22415","0.62353, 0.34902, 0.22353","0.59216, 0.29804, 0.20784","0.6902, 0.47843, 0.36471","0.80392, 0.60392, 0.49412","0.60784, 0.39216, 0.26275",What is the color of the previous image?,3028,001,2022-02-17_13h49.49.228,Representative Color,2021.2.3,Win32,142.2070535,,,,,,
,,,,,,,,-0.066666667,-0.189814815,1,0,0,0.3315,seventhChoice,6,"0.41569, 0.23529, 0.29804",6,0,6,6,1,1,resources/t1DSC_0021.png,"0.16863, 0.027451, 0.035294","0.34118, 0.023529, 0.05098","0.37836, 0.0080068, 0.055199","0.37255, 0.12157, 0.18431","0.34902, 0.043137, 0.094118","0.41569, 0.23529, 0.29804","0.21569, 0.0078431, 0.019608","0.44314, 0.16863, 0.21961",What is the color of the previous image?,3028,001,2022-02-17_13h49.49.228,Representative Color,2021.2.3,Win32,142.2070535,,,,,,
,,,,,,,,-0.066666667,-0.189814815,1,0,0,0.3325,seventhChoice,6,"0.4549, 0.23137, 0.12157",8,0,7,7,5,1,resources/t1Model-J.png,"0.74118, 0.41961, 0.23529","0.52414, 0.27049, 0.13884","0.79714, 0.44966, 0.25005","0.63529, 0.38824, 0.21569","0.70588, 0.43922, 0.2549","0.64314, 0.33725, 0.18431","0.56863, 0.32157, 0.19216","0.4549, 0.23137, 0.12157",What is the color of the previous image?,3028,001,2022-02-17_13h49.49.228,Representative Color,2021.2.3,Win32,142.2070535,,,,,,
,,,,,,,,-0.066666667,-0.189814815,1,0,0,0.2618,seventhChoice,6,"0.48235, 0.24314, 0.13333",5,0,8,8,11,1,resources/t1Model-R.png,"0.56863, 0.34902, 0.22353","0.54902, 0.27843, 0.15686","0.62375, 0.38114, 0.24213","0.60078, 0.30229, 0.16803","0.48235, 0.24314, 0.13333","0.65098, 0.41176, 0.28235","0.49412, 0.28627, 0.16471","0.54118, 0.31373, 0.19216",What is the color of the previous image?,3028,001,2022-02-17_13h49.49.228,Representative Color,2021.2.3,Win32,142.2070535,,,,,,
,,,,,,,,-0.066666667,-0.189814815,1,0,0,0.7075,seventhChoice,6,"0.72531, 0.40323, 0.30464",3,0,9,9,4,1,resources/t1Model-B.png,"0.73725, 0.54118, 0.45098","0.79859, 0.58507, 0.48676","0.72531, 0.40323, 0.30464","0.71373, 0.40784, 0.36078","0.8, 0.48235, 0.4","0.68235, 0.44314, 0.33333","0.64706, 0.45882, 0.36471","0.71765, 0.49804, 0.41176",What is the color of the previous image?,3028,001,2022-02-17_13h49.49.228,Representative Color,2021.2.3,Win32,142.2070535,,,,,,
,,,,,,,,-0.066666667,-0.189814815,1,0,0,4.0107,seventhChoice,6,"0.58431, 0.32157, 0.18431",4,0,10,10,7,1,resources/t1Model-LC.png,"0.73725, 0.52941, 0.38431","0.79679, 0.57109, 0.41322","0.66488, 0.37758, 0.19682","0.58431, 0.32157, 0.18431","0.61176, 0.34902, 0.18431","0.68627, 0.47059, 0.32941","0.81569, 0.61176, 0.47843","0.63529, 0.42353, 0.27451",What is the color of the previous image?,3028,001,2022-02-17_13h49.49.228,Representative Color,2021.2.3,Win32,142.2070535,,,,,,
,,,,,,,,-0.066666667,-0.189814815,1,0,0,0.8047,seventhChoice,6,"0.44713, 0.61369, 0.1255",8,0,11,11,17,1,resources/t1zpeppers.png,"0.35294, 0.47451, 0.15294","0.48235, 0.63529, 0.13725","0.37942, 0.51262, 0.16068","0.5104, 0.6743, 0.13948","0.41176, 0.59216, 0.11373","0.417, 0.55383, 0.14817","0.38255, 0.53277, 0.1372","0.44713, 0.61369, 0.1255",What is the color of the previous image?,3028,001,2022-02-17_13h49.49.228,Representative Color,2021.2.3,Win32,142.2070535,,,,,,
,,,,,,,,-0.066666667,-0.189814815,1,0,0,0.3239,seventhChoice,6,"0.21961, 0.086275, 0.12549",5,0,12,12,2,1,resources/t1DSC_0025.png,"0.39608, 0.058824, 0.070588","0.21431, 0.034629, 0.057098","0.43656, 0.051112, 0.07439","0.51373, 0.35294, 0.40784","0.21961, 0.086275, 0.12549","0.33333, 0.019608, 0.031373","0.36078, 0.26667, 0.32157","0.48235, 0.22745, 0.26275",What is the color of the previous image?,3028,001,2022-02-17_13h49.49.228,Representative Color,2021.2.3,Win32,142.2070535,,,,,,
,,,,,,,,-0.057407407,-0.192592593,1,0,0,0.367,seventhChoice,6,"0.36342, 0.17598, 0.098248",2,0,13,13,9,1,resources/t1Model-O.png,"0.31765, 0.15686, 0.090196","0.36342, 0.17598, 0.098248","0.55928, 0.25965, 0.13367","0.38431, 0.14902, 0.047059","0.22745, 0.098039, 0.05098","0.27161, 0.12707, 0.072951","0.41066, 0.19954, 0.10607","0.30444, 0.12352, 0.051246",What is the color of the previous image?,3028,001,2022-02-17_13h49.49.228,Representative Color,2021.2.3,Win32,142.2070535,,,,,,
,,,,,,,,-0.057407407,-0.192592593,1,0,0,0.623,seventhChoice,6,"0.76987, 0.66176, 0.16087",3,0,14,14,15,1,resources/t1green22days1_hdrOff.png,"0.68235, 0.57255, 0.20784","0.72549, 0.62353, 0.15686","0.76987, 0.66176, 0.16087","0.82745, 0.62745, 0.21569","0.70588, 0.53725, 0.12549","0.7451, 0.66275, 0.27451","0.60784, 0.52941, 0.18824","0.65098, 0.51373, 0.18824",What is the color of the previous image?,3028,001,2022-02-17_13h49.49.228,Representative Color,2021.2.3,Win32,142.2070535,,,,,,
,,,,,,,,-0.057407407,-0.192592593,1,0,0,1.8454,seventhChoice,6,"0.65167, 0.63033, 0.49287",3,0,15,15,0,1,resources/t1DSC_0016.png,"0.6, 0.58039, 0.4549","0.6564, 0.64356, 0.5619","0.65167, 0.63033, 0.49287","0.60392, 0.59216, 0.50196","0.60392, 0.60392, 0.55686","0.62839, 0.6118, 0.50808","0.62574, 0.60526, 0.47382","0.60418, 0.59802, 0.5294",What is the color of the previous image?,3028,001,2022-02-17_13h49.49.228,Representative Color,2021.2.3,Win32,142.2070535,,,,,,
,,,,,,,,-0.057407407,-0.192592593,1,0,0,0.5618,seventhChoice,6,"0.35294, 0.16078, 0.070588",5,0,16,16,14,1,resources/t1Model-yl.png,"0.43529, 0.22353, 0.12157","0.48425, 0.24604, 0.13103","0.74365, 0.40389, 0.19507","0.56078, 0.26667, 0.1451","0.35294, 0.16078, 0.070588","0.6, 0.35294, 0.22353","0.55294, 0.31373, 0.19216","0.30588, 0.12549, 0.043137",What is the color of the previous image?,3028,001,2022-02-17_13h49.49.228,Representative Color,2021.2.3,Win32,142.2070535,,,,,,
,,,,,,,,-0.057407407,-0.192592593,1,0,0,0.4504,seventhChoice,6,"0.59216, 0.31765, 0.21569",2,0,17,17,3,1,resources/t1Model-A.png,"0.60784, 0.39216, 0.26667","0.59216, 0.31765, 0.21569","0.66468, 0.4273, 0.28886","0.64755, 0.3451, 0.23286","0.72157, 0.47059, 0.33333","0.42353, 0.18824, 0.094118","0.50588, 0.29804, 0.19608","0.56078, 0.3451, 0.23529",What is the color of the previous image?,3028,001,2022-02-17_13h49.49.228,Representative Color,2021.2.3,Win32,142.2070535,,,,,,
,,,,,,,,-0.057407407,-0.192592593,1,0,0,0.3115,seventhChoice,6,"0.69412, 0.47451, 0.35294",1,0,18,18,10,1,resources/t1Model-Ol.png,"0.69412, 0.47451, 0.35294","0.7537, 0.51393, 0.381","0.75045, 0.43076, 0.25995","0.56863, 0.2902, 0.18039","0.52941, 0.28235, 0.15294","0.69412, 0.4, 0.24314","0.79608, 0.58039, 0.45098","0.58431, 0.37255, 0.24706",What is the color of the previous image?,3028,001,2022-02-17_13h49.49.228,Representative Color,2021.2.3,Win32,142.2070535,,,,,,
,,,,,,,,-0.057407407,-0.192592593,1,0,0,0.2138,seventhChoice,6,"0.8714, 0.46756, 0.23566",2,0,19,19,16,1,resources/t1mysteryLightOr_hdrOff.png,"0.81569, 0.43922, 0.22353","0.8714, 0.46756, 0.23566","0.91794, 0.40919, 0.093393","0.77255, 0.29804, 0.07451","0.9098, 0.55294, 0.30196","0.88627, 0.50196, 0.23922","0.72941, 0.36471, 0.19608","0.81569, 0.36863, 0.13333",What is the color of the previous image?,3028,001,2022-02-17_13h49.49.228,Representative Color,2021.2.3,Win32,142.2070535,,,,,,
,,,,,,,,,,,,,,,,,,,,,,,,,,,,,,,,,3028,001,2022-02-17_13h49.49.228,Representative Color,2021.2.3,Win32,142.2070535,0,1,1,1,1,resources/trialScramble.xlsx
,,,,,,,,-0.07962963,-0.203703704,1,0,0,0.222,seventhChoice,6,"0.6, 0.58039, 0.4549",1,0,0,0,0,1,resources/t2DSC_0016.png,"0.6, 0.58039, 0.4549","0.6564, 0.64356, 0.5619","0.65167, 0.63033, 0.49287","0.60392, 0.59216, 0.50196","0.60392, 0.60392, 0.55686","0.62839, 0.6118, 0.50808","0.62574, 0.60526, 0.47382","0.60418, 0.59802, 0.5294",What is the color of the previous image?,3028,001,2022-02-17_13h49.49.228,Representative Color,2021.2.3,Win32,142.2070535,,,,,,
,,,,,,,,-0.07962963,-0.203703704,1,0,0,0.1516,seventhChoice,6,"0.32157, 0.38039, 0.19216",4,0,1,1,19,1,resources/t2zgrass.png,"0.30588, 0.41569, 0.18824","0.36341, 0.42546, 0.21823","0.33318, 0.45547, 0.20282","0.32157, 0.38039, 0.19216","0.27231, 0.37211, 0.15269","0.31422, 0.39807, 0.19031","0.34895, 0.44055, 0.21071","0.28046, 0.35484, 0.15506",What is the color of the previous image?,3028,001,2022-02-17_13h49.49.228,Representative Color,2021.2.3,Win32,142.2070535,,,,,,
,,,,,,,,-0.069444444,-0.198148148,1,0,0,0.2205,seventhChoice,6,"0.60784, 0.39216, 0.26667",1,0,2,2,3,1,resources/t2Model-A.png,"0.60784, 0.39216, 0.26667","0.59216, 0.31765, 0.21569","0.66468, 0.4273, 0.28886","0.64755, 0.3451, 0.23286","0.72157, 0.47059, 0.33333","0.42353, 0.18824, 0.094118","0.50588, 0.29804, 0.19608","0.56078, 0.3451, 0.23529",What is the color of the previous image?,3028,001,2022-02-17_13h49.49.228,Representative Color,2021.2.3,Win32,142.2070535,,,,,,
,,,,,,,,-0.069444444,-0.198148148,1,0,0,0.2923,seventhChoice,6,"0.74118, 0.41961, 0.23529",1,0,3,3,5,1,resources/t2Model-J.png,"0.74118, 0.41961, 0.23529","0.52414, 0.27049, 0.13884","0.79714, 0.44966, 0.25005","0.63529, 0.38824, 0.21569","0.70588, 0.43922, 0.2549","0.64314, 0.33725, 0.18431","0.56863, 0.32157, 0.19216","0.4549, 0.23137, 0.12157",What is the color of the previous image?,3028,001,2022-02-17_13h49.49.228,Representative Color,2021.2.3,Win32,142.2070535,,,,,,
,,,,,,,,-0.069444444,-0.198148148,1,0,0,0.296,seventhChoice,6,"0.65098, 0.51373, 0.18824",8,0,4,4,15,1,resources/t2green22days1_hdrOff.png,"0.68235, 0.57255, 0.20784","0.72549, 0.62353, 0.15686","0.76987, 0.66176, 0.16087","0.82745, 0.62745, 0.21569","0.70588, 0.53725, 0.12549","0.7451, 0.66275, 0.27451","0.60784, 0.52941, 0.18824","0.65098, 0.51373, 0.18824",What is the color of the previous image?,3028,001,2022-02-17_13h49.49.228,Representative Color,2021.2.3,Win32,142.2070535,,,,,,
,,,,,,,,-0.069444444,-0.198148148,1,0,0,0.1865,seventhChoice,6,"0.54887, 0.3251, 0.1898",6,0,5,5,13,1,resources/t2Model-ll.png,"0.59608, 0.36863, 0.23137","0.66275, 0.4, 0.21961","0.71741, 0.4315, 0.23453","0.65882, 0.43137, 0.29412","0.62936, 0.38426, 0.22577","0.54887, 0.3251, 0.1898","0.68099, 0.43522, 0.27061","0.58137, 0.34036, 0.18379",What is the color of the previous image?,3028,001,2022-02-17_13h49.49.228,Representative Color,2021.2.3,Win32,142.2070535,,,,,,
,,,,,,,,-0.069444444,-0.198148148,1,0,0,0.2265,seventhChoice,6,"0.43529, 0.22353, 0.12157",1,0,6,6,14,1,resources/t2Model-yl.png,"0.43529, 0.22353, 0.12157","0.48425, 0.24604, 0.13103","0.74365, 0.40389, 0.19507","0.56078, 0.26667, 0.1451","0.35294, 0.16078, 0.070588","0.6, 0.35294, 0.22353","0.55294, 0.31373, 0.19216","0.30588, 0.12549, 0.043137",What is the color of the previous image?,3028,001,2022-02-17_13h49.49.228,Representative Color,2021.2.3,Win32,142.2070535,,,,,,
,,,,,,,,-0.069444444,-0.198148148,1,0,0,0.2274,seventhChoice,6,"0.54118, 0.65098, 0.81961",4,0,7,7,18,1,resources/t2sky.png,"0.38039, 0.50588, 0.72941","0.60278, 0.71367, 0.87522","0.41001, 0.54883, 0.79353","0.54118, 0.65098, 0.81961","0.48627, 0.6, 0.78824","0.39516, 0.52728, 0.76134","0.50889, 0.63012, 0.83447","0.4494, 0.57426, 0.79097",What is the color of the previous image?,3028,001,2022-02-17_13h49.49.228,Representative Color,2021.2.3,Win32,142.2070535,,,,,,
,,,,,,,,-0.069444444,-0.198148148,1,0,0,0.3593,seventhChoice,6,"0.62353, 0.34902, 0.22353",4,0,8,8,12,1,resources/t2Model-Y.png,"0.72941, 0.52157, 0.4","0.78972, 0.56355, 0.43105","0.64714, 0.32317, 0.22415","0.62353, 0.34902, 0.22353","0.59216, 0.29804, 0.20784","0.6902, 0.47843, 0.36471","0.80392, 0.60392, 0.49412","0.60784, 0.39216, 0.26275",What is the color of the previous image?,3028,001,2022-02-17_13h49.49.228,Representative Color,2021.2.3,Win32,142.2070535,,,,,,
,,,,,,,,-0.069444444,-0.198148148,1,0,0,0.2701,seventhChoice,6,"0.21569, 0.0078431, 0.019608",7,0,9,9,1,1,resources/t2DSC_0021.png,"0.16863, 0.027451, 0.035294","0.34118, 0.023529, 0.05098","0.37836, 0.0080068, 0.055199","0.37255, 0.12157, 0.18431","0.34902, 0.043137, 0.094118","0.41569, 0.23529, 0.29804","0.21569, 0.0078431, 0.019608","0.44314, 0.16863, 0.21961",What is the color of the previous image?,3028,001,2022-02-17_13h49.49.228,Representative Color,2021.2.3,Win32,142.2070535,,,,,,
,,,,,,,,-0.069444444,-0.198148148,1,0,0,0.2979,seventhChoice,6,"0.71373, 0.40784, 0.36078",4,0,10,10,4,1,resources/t2Model-B.png,"0.73725, 0.54118, 0.45098","0.79859, 0.58507, 0.48676","0.72531, 0.40323, 0.30464","0.71373, 0.40784, 0.36078","0.8, 0.48235, 0.4","0.68235, 0.44314, 0.33333","0.64706, 0.45882, 0.36471","0.71765, 0.49804, 0.41176",What is the color of the previous image?,3028,001,2022-02-17_13h49.49.228,Representative Color,2021.2.3,Win32,142.2070535,,,,,,
,,,,,,,,-0.069444444,-0.198148148,1,0,0,0.6577,seventhChoice,6,"0.62375, 0.38114, 0.24213",3,0,11,11,11,1,resources/t2Model-R.png,"0.56863, 0.34902, 0.22353","0.54902, 0.27843, 0.15686","0.62375, 0.38114, 0.24213","0.60078, 0.30229, 0.16803","0.48235, 0.24314, 0.13333","0.65098, 0.41176, 0.28235","0.49412, 0.28627, 0.16471","0.54118, 0.31373, 0.19216",What is the color of the previous image?,3028,001,2022-02-17_13h49.49.228,Representative Color,2021.2.3,Win32,142.2070535,,,,,,
,,,,,,,,-0.069444444,-0.198148148,1,0,0,0.3257,seventhChoice,6,"0.73725, 0.52941, 0.38431",1,0,12,12,7,1,resources/t2Model-LC.png,"0.73725, 0.52941, 0.38431","0.79679, 0.57109, 0.41322","0.66488, 0.37758, 0.19682","0.58431, 0.32157, 0.18431","0.61176, 0.34902, 0.18431","0.68627, 0.47059, 0.32941","0.81569, 0.61176, 0.47843","0.63529, 0.42353, 0.27451",What is the color of the previous image?,3028,001,2022-02-17_13h49.49.228,Representative Color,2021.2.3,Win32,142.2070535,,,,,,
,,,,,,,,-0.069444444,-0.198148148,1,0,0,0.3869,seventhChoice,6,"0.56863, 0.2902, 0.18039",4,0,13,13,10,1,resources/t2Model-Ol.png,"0.69412, 0.47451, 0.35294","0.7537, 0.51393, 0.381","0.75045, 0.43076, 0.25995","0.56863, 0.2902, 0.18039","0.52941, 0.28235, 0.15294","0.69412, 0.4, 0.24314","0.79608, 0.58039, 0.45098","0.58431, 0.37255, 0.24706",What is the color of the previous image?,3028,001,2022-02-17_13h49.49.228,Representative Color,2021.2.3,Win32,142.2070535,,,,,,
,,,,,,,,-0.069444444,-0.198148148,1,0,0,0.4856,seventhChoice,6,"0.38431, 0.14902, 0.047059",4,0,14,14,9,1,resources/t2Model-O.png,"0.31765, 0.15686, 0.090196","0.36342, 0.17598, 0.098248","0.55928, 0.25965, 0.13367","0.38431, 0.14902, 0.047059","0.22745, 0.098039, 0.05098","0.27161, 0.12707, 0.072951","0.41066, 0.19954, 0.10607","0.30444, 0.12352, 0.051246",What is the color of the previous image?,3028,001,2022-02-17_13h49.49.228,Representative Color,2021.2.3,Win32,142.2070535,,,,,,
,,,,,,,,-0.069444444,-0.198148148,1,0,0,0.2065,seventhChoice,6,"0.52549, 0.2902, 0.16471",1,0,15,15,6,1,resources/t2Model-L.png,"0.52549, 0.2902, 0.16471","0.61569, 0.30588, 0.18039","0.57757, 0.31686, 0.1774","0.66902, 0.33001, 0.19272","0.47843, 0.25098, 0.13333","0.65882, 0.4, 0.25882","0.61176, 0.36078, 0.23137","0.41961, 0.20784, 0.094118",What is the color of the previous image?,3028,001,2022-02-17_13h49.49.228,Representative Color,2021.2.3,Win32,142.2070535,,,,,,
,,,,,,,,-0.069444444,-0.198148148,1,0,0,0.2701,seventhChoice,6,"0.8714, 0.46756, 0.23566",2,0,16,16,16,1,resources/t2mysteryLightOr_hdrOff.png,"0.81569, 0.43922, 0.22353","0.8714, 0.46756, 0.23566","0.91794, 0.40919, 0.093393","0.77255, 0.29804, 0.07451","0.9098, 0.55294, 0.30196","0.88627, 0.50196, 0.23922","0.72941, 0.36471, 0.19608","0.81569, 0.36863, 0.13333",What is the color of the previous image?,3028,001,2022-02-17_13h49.49.228,Representative Color,2021.2.3,Win32,142.2070535,,,,,,
,,,,,,,,-0.069444444,-0.198148148,1,0,0,0.5048,seventhChoice,6,"0.21431, 0.034629, 0.057098",2,0,17,17,2,1,resources/t2DSC_0025.png,"0.39608, 0.058824, 0.070588","0.21431, 0.034629, 0.057098","0.43656, 0.051112, 0.07439","0.51373, 0.35294, 0.40784","0.21961, 0.086275, 0.12549","0.33333, 0.019608, 0.031373","0.36078, 0.26667, 0.32157","0.48235, 0.22745, 0.26275",What is the color of the previous image?,3028,001,2022-02-17_13h49.49.228,Representative Color,2021.2.3,Win32,142.2070535,,,,,,
,,,,,,,,-0.069444444,-0.198148148,1,0,0,0.3248,seventhChoice,6,"0.38255, 0.53277, 0.1372",7,0,18,18,17,1,resources/t2zpeppers.png,"0.35294, 0.47451, 0.15294","0.48235, 0.63529, 0.13725","0.37942, 0.51262, 0.16068","0.5104, 0.6743, 0.13948","0.41176, 0.59216, 0.11373","0.417, 0.55383, 0.14817","0.38255, 0.53277, 0.1372","0.44713, 0.61369, 0.1255",What is the color of the previous image?,3028,001,2022-02-17_13h49.49.228,Representative Color,2021.2.3,Win32,142.2070535,,,,,,
,,,,,,,,-0.069444444,-0.198148148,1,0,0,0.2479,seventhChoice,6,"0.71412, 0.48874, 0.36979",8,0,19,19,8,1,resources/t2Model-M.png,"0.72549, 0.51373, 0.4","0.65098, 0.35294, 0.25098","0.78605, 0.55541, 0.43138","0.68985, 0.4335, 0.3243","0.6843, 0.46832, 0.35448","0.71971, 0.45365, 0.33937","0.73744, 0.47932, 0.37149","0.71412, 0.48874, 0.36979",What is the color of the previous image?,3028,001,2022-02-17_13h49.49.228,Representative Color,2021.2.3,Win32,142.2070535,,,,,,
,,,,,,,,,,,,,,,,,,,,,,,,,,,,,,,,,3028,001,2022-02-17_13h49.49.228,Representative Color,2021.2.3,Win32,142.2070535,0,2,2,2,1,resources/trialSixteen.xlsx
,,,,,,,,-0.085185185,-0.212037037,1,0,0,0.3038,seventhChoice,6,"0.8714, 0.46756, 0.23566",2,0,0,0,16,1,resources/t3mysteryLightOr_hdrOff.png,"0.81569, 0.43922, 0.22353","0.8714, 0.46756, 0.23566","0.91794, 0.40919, 0.093393","0.77255, 0.29804, 0.07451","0.9098, 0.55294, 0.30196","0.88627, 0.50196, 0.23922","0.72941, 0.36471, 0.19608","0.81569, 0.36863, 0.13333",What is the color of the previous image?,3028,001,2022-02-17_13h49.49.228,Representative Color,2021.2.3,Win32,142.2070535,,,,,,
,,,,,,,,-0.076851852,-0.20462963,1,0,0,0.4783,seventhChoice,6,"0.35294, 0.47451, 0.15294",1,0,1,1,17,1,resources/t3zpeppers.png,"0.35294, 0.47451, 0.15294","0.48235, 0.63529, 0.13725","0.37942, 0.51262, 0.16068","0.5104, 0.6743, 0.13948","0.41176, 0.59216, 0.11373","0.417, 0.55383, 0.14817","0.38255, 0.53277, 0.1372","0.44713, 0.61369, 0.1255",What is the color of the previous image?,3028,001,2022-02-17_13h49.49.228,Representative Color,2021.2.3,Win32,142.2070535,,,,,,
,,,,,,,,-0.076851852,-0.20462963,1,0,0,0.2005,seventhChoice,6,"0.70588, 0.43922, 0.2549",5,0,2,2,5,1,resources/t3Model-J.png,"0.74118, 0.41961, 0.23529","0.52414, 0.27049, 0.13884","0.79714, 0.44966, 0.25005","0.63529, 0.38824, 0.21569","0.70588, 0.43922, 0.2549","0.64314, 0.33725, 0.18431","0.56863, 0.32157, 0.19216","0.4549, 0.23137, 0.12157",What is the color of the previous image?,3028,001,2022-02-17_13h49.49.228,Representative Color,2021.2.3,Win32,142.2070535,,,,,,
,,,,,,,,-0.076851852,-0.20462963,1,0,0,0.2556,seventhChoice,6,"0.68627, 0.47059, 0.32941",6,0,3,3,7,1,resources/t3Model-LC.png,"0.73725, 0.52941, 0.38431","0.79679, 0.57109, 0.41322","0.66488, 0.37758, 0.19682","0.58431, 0.32157, 0.18431","0.61176, 0.34902, 0.18431","0.68627, 0.47059, 0.32941","0.81569, 0.61176, 0.47843","0.63529, 0.42353, 0.27451",What is the color of the previous image?,3028,001,2022-02-17_13h49.49.228,Representative Color,2021.2.3,Win32,142.2070535,,,,,,
,,,,,,,,-0.076851852,-0.20462963,1,0,0,0.6097,seventhChoice,6,"0.30588, 0.41569, 0.18824",1,0,4,4,19,1,resources/t3zgrass.png,"0.30588, 0.41569, 0.18824","0.36341, 0.42546, 0.21823","0.33318, 0.45547, 0.20282","0.32157, 0.38039, 0.19216","0.27231, 0.37211, 0.15269","0.31422, 0.39807, 0.19031","0.34895, 0.44055, 0.21071","0.28046, 0.35484, 0.15506",What is the color of the previous image?,3028,001,2022-02-17_13h49.49.228,Representative Color,2021.2.3,Win32,142.2070535,,,,,,
,,,,,,,,-0.076851852,-0.20462963,1,0,0,0.2068,seventhChoice,6,"0.65098, 0.51373, 0.18824",8,0,5,5,15,1,resources/t3green22days1_hdrOff.png,"0.68235, 0.57255, 0.20784","0.72549, 0.62353, 0.15686","0.76987, 0.66176, 0.16087","0.82745, 0.62745, 0.21569","0.70588, 0.53725, 0.12549","0.7451, 0.66275, 0.27451","0.60784, 0.52941, 0.18824","0.65098, 0.51373, 0.18824",What is the color of the previous image?,3028,001,2022-02-17_13h49.49.228,Representative Color,2021.2.3,Win32,142.2070535,,,,,,
,,,,,,,,-0.076851852,-0.20462963,1,0,0,1.4496,seventhChoice,6,"0.79608, 0.58039, 0.45098",7,0,6,6,10,1,resources/t3Model-Ol.png,"0.69412, 0.47451, 0.35294","0.7537, 0.51393, 0.381","0.75045, 0.43076, 0.25995","0.56863, 0.2902, 0.18039","0.52941, 0.28235, 0.15294","0.69412, 0.4, 0.24314","0.79608, 0.58039, 0.45098","0.58431, 0.37255, 0.24706",What is the color of the previous image?,3028,001,2022-02-17_13h49.49.228,Representative Color,2021.2.3,Win32,142.2070535,,,,,,
,,,,,,,,-0.076851852,-0.20462963,1,0,0,0.5185,seventhChoice,6,"0.34902, 0.043137, 0.094118",5,0,7,7,1,1,resources/t3DSC_0021.png,"0.16863, 0.027451, 0.035294","0.34118, 0.023529, 0.05098","0.37836, 0.0080068, 0.055199","0.37255, 0.12157, 0.18431","0.34902, 0.043137, 0.094118","0.41569, 0.23529, 0.29804","0.21569, 0.0078431, 0.019608","0.44314, 0.16863, 0.21961",What is the color of the previous image?,3028,001,2022-02-17_13h49.49.228,Representative Color,2021.2.3,Win32,142.2070535,,,,,,
,,,,,,,,-0.076851852,-0.20462963,1,0,0,0.6359,seventhChoice,6,"0.54902, 0.27843, 0.15686",2,0,8,8,11,1,resources/t3Model-R.png,"0.56863, 0.34902, 0.22353","0.54902, 0.27843, 0.15686","0.62375, 0.38114, 0.24213","0.60078, 0.30229, 0.16803","0.48235, 0.24314, 0.13333","0.65098, 0.41176, 0.28235","0.49412, 0.28627, 0.16471","0.54118, 0.31373, 0.19216",What is the color of the previous image?,3028,001,2022-02-17_13h49.49.228,Representative Color,2021.2.3,Win32,142.2070535,,,,,,
,,,,,,,,-0.068518519,-0.200925926,1,0,0,0.8039,seventhChoice,6,"0.72531, 0.40323, 0.30464",3,0,9,9,4,1,resources/t3Model-B.png,"0.73725, 0.54118, 0.45098","0.79859, 0.58507, 0.48676","0.72531, 0.40323, 0.30464","0.71373, 0.40784, 0.36078","0.8, 0.48235, 0.4","0.68235, 0.44314, 0.33333","0.64706, 0.45882, 0.36471","0.71765, 0.49804, 0.41176",What is the color of the previous image?,3028,001,2022-02-17_13h49.49.228,Representative Color,2021.2.3,Win32,142.2070535,,,,,,
,,,,,,,,-0.068518519,-0.200925926,1,0,0,1.4296,seventhChoice,6,"0.62839, 0.6118, 0.50808",6,0,10,10,0,1,resources/t3DSC_0016.png,"0.6, 0.58039, 0.4549","0.6564, 0.64356, 0.5619","0.65167, 0.63033, 0.49287","0.60392, 0.59216, 0.50196","0.60392, 0.60392, 0.55686","0.62839, 0.6118, 0.50808","0.62574, 0.60526, 0.47382","0.60418, 0.59802, 0.5294",What is the color of the previous image?,3028,001,2022-02-17_13h49.49.228,Representative Color,2021.2.3,Win32,142.2070535,,,,,,
,,,,,,,,-0.068518519,-0.200925926,1,0,0,1.4008,seventhChoice,6,"0.59216, 0.29804, 0.20784",5,0,11,11,12,1,resources/t3Model-Y.png,"0.72941, 0.52157, 0.4","0.78972, 0.56355, 0.43105","0.64714, 0.32317, 0.22415","0.62353, 0.34902, 0.22353","0.59216, 0.29804, 0.20784","0.6902, 0.47843, 0.36471","0.80392, 0.60392, 0.49412","0.60784, 0.39216, 0.26275",What is the color of the previous image?,3028,001,2022-02-17_13h49.49.228,Representative Color,2021.2.3,Win32,142.2070535,,,,,,
,,,,,,,,-0.068518519,-0.200925926,1,0,0,0.3664,seventhChoice,6,"0.65882, 0.43137, 0.29412",4,0,12,12,13,1,resources/t3Model-ll.png,"0.59608, 0.36863, 0.23137","0.66275, 0.4, 0.21961","0.71741, 0.4315, 0.23453","0.65882, 0.43137, 0.29412","0.62936, 0.38426, 0.22577","0.54887, 0.3251, 0.1898","0.68099, 0.43522, 0.27061","0.58137, 0.34036, 0.18379",What is the color of the previous image?,3028,001,2022-02-17_13h49.49.228,Representative Color,2021.2.3,Win32,142.2070535,,,,,,
,,,,,,,,-0.068518519,-0.200925926,1,0,0,0.3858,seventhChoice,6,"0.50588, 0.29804, 0.19608",7,0,13,13,3,1,resources/t3Model-A.png,"0.60784, 0.39216, 0.26667","0.59216, 0.31765, 0.21569","0.66468, 0.4273, 0.28886","0.64755, 0.3451, 0.23286","0.72157, 0.47059, 0.33333","0.42353, 0.18824, 0.094118","0.50588, 0.29804, 0.19608","0.56078, 0.3451, 0.23529",What is the color of the previous image?,3028,001,2022-02-17_13h49.49.228,Representative Color,2021.2.3,Win32,142.2070535,,,,,,
,,,,,,,,-0.068518519,-0.200925926,1,0,0,2.2702,seventhChoice,6,"0.41001, 0.54883, 0.79353",3,0,14,14,18,1,resources/t3sky.png,"0.38039, 0.50588, 0.72941","0.60278, 0.71367, 0.87522","0.41001, 0.54883, 0.79353","0.54118, 0.65098, 0.81961","0.48627, 0.6, 0.78824","0.39516, 0.52728, 0.76134","0.50889, 0.63012, 0.83447","0.4494, 0.57426, 0.79097",What is the color of the previous image?,3028,001,2022-02-17_13h49.49.228,Representative Color,2021.2.3,Win32,142.2070535,,,,,,
,,,,,,,,-0.068518519,-0.200925926,1,0,0,0.5398,seventhChoice,6,"0.73744, 0.47932, 0.37149",7,0,15,15,8,1,resources/t3Model-M.png,"0.72549, 0.51373, 0.4","0.65098, 0.35294, 0.25098","0.78605, 0.55541, 0.43138","0.68985, 0.4335, 0.3243","0.6843, 0.46832, 0.35448","0.71971, 0.45365, 0.33937","0.73744, 0.47932, 0.37149","0.71412, 0.48874, 0.36979",What is the color of the previous image?,3028,001,2022-02-17_13h49.49.228,Representative Color,2021.2.3,Win32,142.2070535,,,,,,
,,,,,,,,-0.068518519,-0.200925926,1,0,0,0.6718,seventhChoice,6,"0.30588, 0.12549, 0.043137",8,0,16,16,14,1,resources/t3Model-yl.png,"0.43529, 0.22353, 0.12157","0.48425, 0.24604, 0.13103","0.74365, 0.40389, 0.19507","0.56078, 0.26667, 0.1451","0.35294, 0.16078, 0.070588","0.6, 0.35294, 0.22353","0.55294, 0.31373, 0.19216","0.30588, 0.12549, 0.043137",What is the color of the previous image?,3028,001,2022-02-17_13h49.49.228,Representative Color,2021.2.3,Win32,142.2070535,,,,,,
,,,,,,,,-0.068518519,-0.200925926,1,0,0,0.2824,seventhChoice,6,"0.30444, 0.12352, 0.051246",8,0,17,17,9,1,resources/t3Model-O.png,"0.31765, 0.15686, 0.090196","0.36342, 0.17598, 0.098248","0.55928, 0.25965, 0.13367","0.38431, 0.14902, 0.047059","0.22745, 0.098039, 0.05098","0.27161, 0.12707, 0.072951","0.41066, 0.19954, 0.10607","0.30444, 0.12352, 0.051246",What is the color of the previous image?,3028,001,2022-02-17_13h49.49.228,Representative Color,2021.2.3,Win32,142.2070535,,,,,,
,,,,,,,,-0.068518519,-0.200925926,1,0,0,0.3526,seventhChoice,6,"0.21961, 0.086275, 0.12549",5,0,18,18,2,1,resources/t3DSC_0025.png,"0.39608, 0.058824, 0.070588","0.21431, 0.034629, 0.057098","0.43656, 0.051112, 0.07439","0.51373, 0.35294, 0.40784","0.21961, 0.086275, 0.12549","0.33333, 0.019608, 0.031373","0.36078, 0.26667, 0.32157","0.48235, 0.22745, 0.26275",What is the color of the previous image?,3028,001,2022-02-17_13h49.49.228,Representative Color,2021.2.3,Win32,142.2070535,,,,,,
,,,,,,,,-0.068518519,-0.200925926,1,0,0,0.2145,seventhChoice,6,"0.61569, 0.30588, 0.18039",2,0,19,19,6,1,resources/t3Model-L.png,"0.52549, 0.2902, 0.16471","0.61569, 0.30588, 0.18039","0.57757, 0.31686, 0.1774","0.66902, 0.33001, 0.19272","0.47843, 0.25098, 0.13333","0.65882, 0.4, 0.25882","0.61176, 0.36078, 0.23137","0.41961, 0.20784, 0.094118",What is the color of the previous image?,3028,001,2022-02-17_13h49.49.228,Representative Color,2021.2.3,Win32,142.2070535,,,,,,
,,,,,,,,,,,,,,,,,,,,,,,,,,,,,,,,,3028,001,2022-02-17_13h49.49.228,Representative Color,2021.2.3,Win32,142.2070535,0,3,3,3,1,resources/trialSixtyFour.xlsx
,,,,,,,,-0.077777778,-0.224074074,1,0,0,0.4631,seventhChoice,6,"0.69412, 0.47451, 0.35294",1,0,0,0,10,1,resources/t4Model-Ol.png,"0.69412, 0.47451, 0.35294","0.7537, 0.51393, 0.381","0.75045, 0.43076, 0.25995","0.56863, 0.2902, 0.18039","0.52941, 0.28235, 0.15294","0.69412, 0.4, 0.24314","0.79608, 0.58039, 0.45098","0.58431, 0.37255, 0.24706",What is the color of the person's skin in the previous image?,3028,001,2022-02-17_13h49.49.228,Representative Color,2021.2.3,Win32,142.2070535,,,,,,
,,,,,,,,-0.075925926,-0.219444444,1,0,0,0.2347,seventhChoice,6,"0.65882, 0.4, 0.25882",6,0,1,1,6,1,resources/t4Model-L.png,"0.52549, 0.2902, 0.16471","0.61569, 0.30588, 0.18039","0.57757, 0.31686, 0.1774","0.66902, 0.33001, 0.19272","0.47843, 0.25098, 0.13333","0.65882, 0.4, 0.25882","0.61176, 0.36078, 0.23137","0.41961, 0.20784, 0.094118",What is the color of the person's skin in the previous image?,3028,001,2022-02-17_13h49.49.228,Representative Color,2021.2.3,Win32,142.2070535,,,,,,
,,,,,,,,-0.075925926,-0.219444444,1,0,0,0.3162,seventhChoice,6,"0.76987, 0.66176, 0.16087",3,0,2,2,15,1,resources/t4green22days1_hdrOff.png,"0.68235, 0.57255, 0.20784","0.72549, 0.62353, 0.15686","0.76987, 0.66176, 0.16087","0.82745, 0.62745, 0.21569","0.70588, 0.53725, 0.12549","0.7451, 0.66275, 0.27451","0.60784, 0.52941, 0.18824","0.65098, 0.51373, 0.18824",What is the color of the tomato in the previous image?,3028,001,2022-02-17_13h49.49.228,Representative Color,2021.2.3,Win32,142.2070535,,,,,,
,,,,,,,,-0.075925926,-0.219444444,1,0,0,1.0889,seventhChoice,6,"0.8, 0.48235, 0.4",5,0,3,3,4,1,resources/t4Model-B.png,"0.73725, 0.54118, 0.45098","0.79859, 0.58507, 0.48676","0.72531, 0.40323, 0.30464","0.71373, 0.40784, 0.36078","0.8, 0.48235, 0.4","0.68235, 0.44314, 0.33333","0.64706, 0.45882, 0.36471","0.71765, 0.49804, 0.41176",What is the color of the person's skin in the previous image?,3028,001,2022-02-17_13h49.49.228,Representative Color,2021.2.3,Win32,142.2070535,,,,,,
,,,,,,,,-0.075925926,-0.219444444,1,0,0,2.0174,seventhChoice,6,"0.35294, 0.47451, 0.15294",1,0,4,4,17,1,resources/t4zpeppers.png,"0.35294, 0.47451, 0.15294","0.48235, 0.63529, 0.13725","0.37942, 0.51262, 0.16068","0.5104, 0.6743, 0.13948","0.41176, 0.59216, 0.11373","0.417, 0.55383, 0.14817","0.38255, 0.53277, 0.1372","0.44713, 0.61369, 0.1255",What is the color of the peppers in the previous image?,3028,001,2022-02-17_13h49.49.228,Representative Color,2021.2.3,Win32,142.2070535,,,,,,
,,,,,,,,-0.075925926,-0.219444444,1,0,0,2.4696,seventhChoice,6,"0.9098, 0.55294, 0.30196",5,0,5,5,16,1,resources/t4mysteryLightOr_hdrOff.png,"0.81569, 0.43922, 0.22353","0.8714, 0.46756, 0.23566","0.91794, 0.40919, 0.093393","0.77255, 0.29804, 0.07451","0.9098, 0.55294, 0.30196","0.88627, 0.50196, 0.23922","0.72941, 0.36471, 0.19608","0.81569, 0.36863, 0.13333",What is the color of the tomato in the previous image?,3028,001,2022-02-17_13h49.49.228,Representative Color,2021.2.3,Win32,142.2070535,,,,,,
,,,,,,,,-0.075925926,-0.219444444,1,0,0,0.7472,seventhChoice,6,"0.21569, 0.0078431, 0.019608",7,0,6,6,1,1,resources/t4DSC_0021.png,"0.16863, 0.027451, 0.035294","0.34118, 0.023529, 0.05098","0.37836, 0.0080068, 0.055199","0.37255, 0.12157, 0.18431","0.34902, 0.043137, 0.094118","0.41569, 0.23529, 0.29804","0.21569, 0.0078431, 0.019608","0.44314, 0.16863, 0.21961",What is the color of the wine in the previous image?,3028,001,2022-02-17_13h49.49.228,Representative Color,2021.2.3,Win32,142.2070535,,,,,,
,,,,,,,,-0.075925926,-0.218518519,1,0,0,0.4762,seventhChoice,6,"0.66468, 0.4273, 0.28886",3,0,7,7,3,1,resources/t4Model-A.png,"0.60784, 0.39216, 0.26667","0.59216, 0.31765, 0.21569","0.66468, 0.4273, 0.28886","0.64755, 0.3451, 0.23286","0.72157, 0.47059, 0.33333","0.42353, 0.18824, 0.094118","0.50588, 0.29804, 0.19608","0.56078, 0.3451, 0.23529",What is the color of the person's skin in the previous image?,3028,001,2022-02-17_13h49.49.228,Representative Color,2021.2.3,Win32,142.2070535,,,,,,
,,,,,,,,-0.05,-0.188888889,1,0,0,3.5818,seventhChoice,6,"0.22745, 0.098039, 0.05098",5,0,8,8,9,1,resources/t4Model-O.png,"0.31765, 0.15686, 0.090196","0.36342, 0.17598, 0.098248","0.55928, 0.25965, 0.13367","0.38431, 0.14902, 0.047059","0.22745, 0.098039, 0.05098","0.27161, 0.12707, 0.072951","0.41066, 0.19954, 0.10607","0.30444, 0.12352, 0.051246",What is the color of the person's skin in the previous image?,3028,001,2022-02-17_13h49.49.228,Representative Color,2021.2.3,Win32,142.2070535,,,,,,
,,,,,,,,-0.05,-0.188888889,1,0,0,0.1656,seventhChoice,6,"0.62936, 0.38426, 0.22577",5,0,9,9,13,1,resources/t4Model-ll.png,"0.59608, 0.36863, 0.23137","0.66275, 0.4, 0.21961","0.71741, 0.4315, 0.23453","0.65882, 0.43137, 0.29412","0.62936, 0.38426, 0.22577","0.54887, 0.3251, 0.1898","0.68099, 0.43522, 0.27061","0.58137, 0.34036, 0.18379",What is the color of the person's skin in the previous image?,3028,001,2022-02-17_13h49.49.228,Representative Color,2021.2.3,Win32,142.2070535,,,,,,
,,,,,,,,-0.05,-0.188888889,1,0,0,0.1649,seventhChoice,6,"0.63529, 0.42353, 0.27451",8,0,10,10,7,1,resources/t4Model-LC.png,"0.73725, 0.52941, 0.38431","0.79679, 0.57109, 0.41322","0.66488, 0.37758, 0.19682","0.58431, 0.32157, 0.18431","0.61176, 0.34902, 0.18431","0.68627, 0.47059, 0.32941","0.81569, 0.61176, 0.47843","0.63529, 0.42353, 0.27451",What is the color of the person's skin in the previous image?,3028,001,2022-02-17_13h49.49.228,Representative Color,2021.2.3,Win32,142.2070535,,,,,,
,,,,,,,,-0.05,-0.183333333,1,0,0,0.2422,seventhChoice,6,"0.54118, 0.31373, 0.19216",8,0,11,11,11,1,resources/t4Model-R.png,"0.56863, 0.34902, 0.22353","0.54902, 0.27843, 0.15686","0.62375, 0.38114, 0.24213","0.60078, 0.30229, 0.16803","0.48235, 0.24314, 0.13333","0.65098, 0.41176, 0.28235","0.49412, 0.28627, 0.16471","0.54118, 0.31373, 0.19216",What is the color of the person's skin in the previous image?,3028,001,2022-02-17_13h49.49.228,Representative Color,2021.2.3,Win32,142.2070535,,,,,,
,,,,,,,,-0.05,-0.183333333,1,0,0,0.1702,seventhChoice,6,"0.60418, 0.59802, 0.5294",8,0,12,12,0,1,resources/t4DSC_0016.png,"0.6, 0.58039, 0.4549","0.6564, 0.64356, 0.5619","0.65167, 0.63033, 0.49287","0.60392, 0.59216, 0.50196","0.60392, 0.60392, 0.55686","0.62839, 0.6118, 0.50808","0.62574, 0.60526, 0.47382","0.60418, 0.59802, 0.5294",What is the color of the wine in the previous image?,3028,001,2022-02-17_13h49.49.228,Representative Color,2021.2.3,Win32,142.2070535,,,,,,
,,,,,,,,-0.05,-0.183333333,1,0,0,0.2687,seventhChoice,6,"0.34895, 0.44055, 0.21071",7,0,13,13,19,1,resources/t4zgrass.png,"0.30588, 0.41569, 0.18824","0.36341, 0.42546, 0.21823","0.33318, 0.45547, 0.20282","0.32157, 0.38039, 0.19216","0.27231, 0.37211, 0.15269","0.31422, 0.39807, 0.19031","0.34895, 0.44055, 0.21071","0.28046, 0.35484, 0.15506",What is the color of the grass in the previous image?,3028,001,2022-02-17_13h49.49.228,Representative Color,2021.2.3,Win32,142.2070535,,,,,,
,,,,,,,,-0.05,-0.183333333,1,0,0,0.1642,seventhChoice,6,"0.74118, 0.41961, 0.23529",1,0,14,14,5,1,resources/t4Model-J.png,"0.74118, 0.41961, 0.23529","0.52414, 0.27049, 0.13884","0.79714, 0.44966, 0.25005","0.63529, 0.38824, 0.21569","0.70588, 0.43922, 0.2549","0.64314, 0.33725, 0.18431","0.56863, 0.32157, 0.19216","0.4549, 0.23137, 0.12157",What is the color of the person's skin in the previous image?,3028,001,2022-02-17_13h49.49.228,Representative Color,2021.2.3,Win32,142.2070535,,,,,,
,,,,,,,,-0.040740741,-0.17037037,1,0,0,1.1862,seventhChoice,6,"0.78605, 0.55541, 0.43138",3,0,15,15,8,1,resources/t4Model-M.png,"0.72549, 0.51373, 0.4","0.65098, 0.35294, 0.25098","0.78605, 0.55541, 0.43138","0.68985, 0.4335, 0.3243","0.6843, 0.46832, 0.35448","0.71971, 0.45365, 0.33937","0.73744, 0.47932, 0.37149","0.71412, 0.48874, 0.36979",What is the color of the person's skin in the previous image?,3028,001,2022-02-17_13h49.49.228,Representative Color,2021.2.3,Win32,142.2070535,,,,,,
,,,,,,,,-0.149074074,0.048148148,1,0,0,0.6081,thirdChoice,2,"0.43656, 0.051112, 0.07439",3,0,16,16,2,1,resources/t4DSC_0025.png,"0.39608, 0.058824, 0.070588","0.21431, 0.034629, 0.057098","0.43656, 0.051112, 0.07439","0.51373, 0.35294, 0.40784","0.21961, 0.086275, 0.12549","0.33333, 0.019608, 0.031373","0.36078, 0.26667, 0.32157","0.48235, 0.22745, 0.26275",What is the color of the wine in the previous image?,3028,001,2022-02-17_13h49.49.228,Representative Color,2021.2.3,Win32,142.2070535,,,,,,
,,,,,,,,-0.149074074,-0.078703704,1,0,0,1.1235,fifthChoice,4,"0.55294, 0.31373, 0.19216",7,0,17,17,14,1,resources/t4Model-yl.png,"0.43529, 0.22353, 0.12157","0.48425, 0.24604, 0.13103","0.74365, 0.40389, 0.19507","0.56078, 0.26667, 0.1451","0.35294, 0.16078, 0.070588","0.6, 0.35294, 0.22353","0.55294, 0.31373, 0.19216","0.30588, 0.12549, 0.043137",What is the color of the person's skin in the previous image?,3028,001,2022-02-17_13h49.49.228,Representative Color,2021.2.3,Win32,142.2070535,,,,,,
,,,,,,,,-0.046296296,0.166666667,1,0,0,1.2971,firstChoice,0,"0.72941, 0.52157, 0.4",1,0,18,18,12,1,resources/t4Model-Y.png,"0.72941, 0.52157, 0.4","0.78972, 0.56355, 0.43105","0.64714, 0.32317, 0.22415","0.62353, 0.34902, 0.22353","0.59216, 0.29804, 0.20784","0.6902, 0.47843, 0.36471","0.80392, 0.60392, 0.49412","0.60784, 0.39216, 0.26275",What is the color of the person's skin in the previous image?,3028,001,2022-02-17_13h49.49.228,Representative Color,2021.2.3,Win32,142.2070535,,,,,,
,,,,,,,,0.187037037,0.064814815,1,0,0,1.3096,fourthChoice,3,"0.38039, 0.50588, 0.72941",1,0,19,19,18,1,resources/t4sky.png,"0.38039, 0.50588, 0.72941","0.60278, 0.71367, 0.87522","0.41001, 0.54883, 0.79353","0.54118, 0.65098, 0.81961","0.48627, 0.6, 0.78824","0.39516, 0.52728, 0.76134","0.50889, 0.63012, 0.83447","0.4494, 0.57426, 0.79097",What is the color of the sky in the previous image?,3028,001,2022-02-17_13h49.49.228,Representative Color,2021.2.3,Win32,142.2070535,,,,,,
,,,,,,,,,,,,,,,,,,,,,,,,,,,,,,,,,3028,001,2022-02-17_13h49.49.228,Representative Color,2021.2.3,Win32,142.2070535,0,4,4,4,1,resources/trialFull.xlsx
