textboxDate.text,textboxElectronicSignature.text,textboxAge.text,textboxInitials.text,sliderViewConditions.response,sliderColorScientist.response,sliderCVD.response,sliderGenderIdentification.response,mouseResponse.x,mouseResponse.y,mouseResponse.leftButton,mouseResponse.midButton,mouseResponse.rightButton,mouseResponse.time,mouseResponse.clicked_name,mouseResponseLocation,choiceColor,choiceIndex,trialsStimuli.thisRepN,trialsStimuli.thisTrialN,trialsStimuli.thisN,trialsStimuli.thisIndex,trialsStimuli.ran,File_Name,color1,color2,color3,color4,color5,color6,color7,color8,Question,,date,expName,psychopyVersion,OS,frameRate,participant,trialsBlock.thisRepN,trialsBlock.thisTrialN,trialsBlock.thisN,trialsBlock.thisIndex,trialsBlock.ran,cond_file
03/31/22,Ansleigh Myers,19,AM,2,2,2,1,-0.071944444,-0.186393229,1,0,0,3.6453,seventhChoice,6,"0.49412, 0.090196, 0.062745",4,0,0,0,0,1,resources/test_wine.png,"0.40784, 0.070588, 0.070588","0.6, 0.043137, 0.035294","0.44887, 0.066156, 0.074042","0.49412, 0.090196, 0.062745","0.53725, 0.011765, 0.0078431","0.30196, 0.066667, 0.062745","0.35427, 0.069613, 0.067232","0.41756, 0.054997, 0.039926",What is the color of the previous image?,,2022-03-31_11h01.03.324,Representative Color,2021.2.3,MacIntel,60.0024001,3238,,,,,,
,,,,,,,,0.063233507,0.191987847,1,0,0,1.3271,secondChoice,1,"0.88235, 0.33333, 0.21176",4,0,1,1,3,1,resources/test_tomato_red.png,"0.80784, 0.27451, 0.18431","0.84314, 0.21961, 0.10196","0.86089, 0.28874, 0.19361","0.88235, 0.33333, 0.21176","0.74118, 0.22745, 0.16863","0.79608, 0.21569, 0.12941","0.77439, 0.25104, 0.17647","0.85235, 0.25555, 0.14958",What is the color of the tomato in the previous image?,,2022-03-31_11h01.03.324,Representative Color,2021.2.3,MacIntel,60.0024001,3238,,,,,,
,,,,,,,,-0.167717014,0.074613715,1,0,0,1.4794,thirdChoice,2,"0.2, 0.35686, 0.6902",2,0,2,2,2,1,resources/test_sky.png,"0.26275, 0.46667, 0.76863","0.2, 0.35686, 0.6902","0.27689, 0.50341, 0.83205","0.21961, 0.41176, 0.72157","0.2415, 0.43907, 0.74504","0.21025, 0.38424, 0.70588","0.35291, 0.58434, 0.85098","0.42745, 0.60784, 0.84314",What is the color of the previous image?,,2022-03-31_11h01.03.324,Representative Color,2021.2.3,MacIntel,60.0024001,3238,,,,,,
,,,,,,,,0.067222222,-0.18672309,1,0,0,2.5648,eighthChoice,7,"0.4549, 0.49412, 0.11765",6,0,3,3,1,1,resources/test_tomato_green.png,"0.50196, 0.52941, 0.19608","0.57255, 0.58431, 0.12549","0.53942, 0.56976, 0.20711","0.6093, 0.62259, 0.12696","0.68627, 0.71373, 0.26667","0.4549, 0.49412, 0.11765","0.61961, 0.64314, 0.26667","0.37647, 0.41569, 0.12941",What is the color of the previous image?,,2022-03-31_11h01.03.324,Representative Color,2021.2.3,MacIntel,60.0024001,3238,,,,,,
,,,,,,,,,,,,,,,,,,,,,,,,,,,,,,,,,,2022-03-31_11h01.03.324,Representative Color,2021.2.3,MacIntel,60.0024001,3238,0,0,0,0,1,resources/training.xlsx
,,,,,,,,0.197868924,-0.069596354,1,0,0,2.3632,sixthChoice,5,"0.65098, 0.41176, 0.28235",6,0,0,0,11,1,resources/t1Model-R.png,"0.56863, 0.34902, 0.22353","0.54902, 0.27843, 0.15686","0.62375, 0.38114, 0.24213","0.60078, 0.30229, 0.16803","0.48235, 0.24314, 0.13333","0.65098, 0.41176, 0.28235","0.49412, 0.28627, 0.16471","0.54118, 0.31373, 0.19216",What is the color of the previous image?,,2022-03-31_11h01.03.324,Representative Color,2021.2.3,MacIntel,60.0024001,3238,,,,,,
,,,,,,,,0.063615451,-0.189796007,1,0,0,1.28,eighthChoice,7,"0.60784, 0.52941, 0.18824",7,0,1,1,15,1,resources/t1green22days1_hdrOff.png,"0.68235, 0.57255, 0.20784","0.72549, 0.62353, 0.15686","0.76987, 0.66176, 0.16087","0.82745, 0.62745, 0.21569","0.70588, 0.53725, 0.12549","0.7451, 0.66275, 0.27451","0.60784, 0.52941, 0.18824","0.65098, 0.51373, 0.18824",What is the color of the previous image?,,2022-03-31_11h01.03.324,Representative Color,2021.2.3,MacIntel,60.0024001,3238,,,,,,
,,,,,,,,-0.082595486,-0.195698785,1,0,0,1.3135,seventhChoice,6,"0.21431, 0.034629, 0.057098",2,0,2,2,2,1,resources/t1DSC_0025.png,"0.39608, 0.058824, 0.070588","0.21431, 0.034629, 0.057098","0.43656, 0.051112, 0.07439","0.51373, 0.35294, 0.40784","0.21961, 0.086275, 0.12549","0.33333, 0.019608, 0.031373","0.36078, 0.26667, 0.32157","0.48235, 0.22745, 0.26275",What is the color of the previous image?,,2022-03-31_11h01.03.324,Representative Color,2021.2.3,MacIntel,60.0024001,3238,,,,,,
,,,,,,,,-0.070868056,0.167773438,1,0,0,2.3471,firstChoice,0,"0.37942, 0.51262, 0.16068",3,0,3,3,17,1,resources/t1zpeppers.png,"0.35294, 0.47451, 0.15294","0.48235, 0.63529, 0.13725","0.37942, 0.51262, 0.16068","0.5104, 0.6743, 0.13948","0.41176, 0.59216, 0.11373","0.417, 0.55383, 0.14817","0.38255, 0.53277, 0.1372","0.44713, 0.61369, 0.1255",What is the color of the previous image?,,2022-03-31_11h01.03.324,Representative Color,2021.2.3,MacIntel,60.0024001,3238,,,,,,
,,,,,,,,-0.147799479,-0.047955729,1,0,0,1.2823,fifthChoice,4,"0.27231, 0.37211, 0.15269",5,0,4,4,19,1,resources/t1zgrass.png,"0.30588, 0.41569, 0.18824","0.36341, 0.42546, 0.21823","0.33318, 0.45547, 0.20282","0.32157, 0.38039, 0.19216","0.27231, 0.37211, 0.15269","0.31422, 0.39807, 0.19031","0.34895, 0.44055, 0.21071","0.28046, 0.35484, 0.15506",What is the color of the previous image?,,2022-03-31_11h01.03.324,Representative Color,2021.2.3,MacIntel,60.0024001,3238,,,,,,
,,,,,,,,0.042382812,-0.167408854,1,0,0,3.7817,eighthChoice,7,"0.56863, 0.32157, 0.19216",7,0,5,5,5,1,resources/t1Model-J.png,"0.74118, 0.41961, 0.23529","0.52414, 0.27049, 0.13884","0.79714, 0.44966, 0.25005","0.63529, 0.38824, 0.21569","0.70588, 0.43922, 0.2549","0.64314, 0.33725, 0.18431","0.56863, 0.32157, 0.19216","0.4549, 0.23137, 0.12157",What is the color of the previous image?,,2022-03-31_11h01.03.324,Representative Color,2021.2.3,MacIntel,60.0024001,3238,,,,,,
,,,,,,,,-0.190807292,0.085173611,1,0,0,1.3978,thirdChoice,2,"0.81569, 0.36863, 0.13333",8,0,6,6,16,1,resources/t1mysteryLightOr_hdrOff.png,"0.81569, 0.43922, 0.22353","0.8714, 0.46756, 0.23566","0.91794, 0.40919, 0.093393","0.77255, 0.29804, 0.07451","0.9098, 0.55294, 0.30196","0.88627, 0.50196, 0.23922","0.72941, 0.36471, 0.19608","0.81569, 0.36863, 0.13333",What is the color of the previous image?,,2022-03-31_11h01.03.324,Representative Color,2021.2.3,MacIntel,60.0024001,3238,,,,,,
,,,,,,,,-0.174913194,-0.060290799,1,0,0,2.1982,fifthChoice,4,"0.31765, 0.15686, 0.090196",1,0,7,7,9,1,resources/t1Model-O.png,"0.31765, 0.15686, 0.090196","0.36342, 0.17598, 0.098248","0.55928, 0.25965, 0.13367","0.38431, 0.14902, 0.047059","0.22745, 0.098039, 0.05098","0.27161, 0.12707, 0.072951","0.41066, 0.19954, 0.10607","0.30444, 0.12352, 0.051246",What is the color of the previous image?,,2022-03-31_11h01.03.324,Representative Color,2021.2.3,MacIntel,60.0024001,3238,,,,,,
,,,,,,,,0.193684896,-0.068914931,1,0,0,1.5824,sixthChoice,5,"0.81569, 0.61176, 0.47843",7,0,8,8,7,1,resources/t1Model-LC.png,"0.73725, 0.52941, 0.38431","0.79679, 0.57109, 0.41322","0.66488, 0.37758, 0.19682","0.58431, 0.32157, 0.18431","0.61176, 0.34902, 0.18431","0.68627, 0.47059, 0.32941","0.81569, 0.61176, 0.47843","0.63529, 0.42353, 0.27451",What is the color of the previous image?,,2022-03-31_11h01.03.324,Representative Color,2021.2.3,MacIntel,60.0024001,3238,,,,,,
,,,,,,,,0.202152778,-0.069114583,1,0,0,4.5651,sixthChoice,5,"0.8, 0.48235, 0.4",5,0,9,9,4,1,resources/t1Model-B.png,"0.73725, 0.54118, 0.45098","0.79859, 0.58507, 0.48676","0.72531, 0.40323, 0.30464","0.71373, 0.40784, 0.36078","0.8, 0.48235, 0.4","0.68235, 0.44314, 0.33333","0.64706, 0.45882, 0.36471","0.71765, 0.49804, 0.41176",What is the color of the previous image?,,2022-03-31_11h01.03.324,Representative Color,2021.2.3,MacIntel,60.0024001,3238,,,,,,
,,,,,,,,-0.057625868,-0.173967014,1,0,0,1.6625,seventhChoice,6,"0.50889, 0.63012, 0.83447",7,0,10,10,18,1,resources/t1sky.png,"0.38039, 0.50588, 0.72941","0.60278, 0.71367, 0.87522","0.41001, 0.54883, 0.79353","0.54118, 0.65098, 0.81961","0.48627, 0.6, 0.78824","0.39516, 0.52728, 0.76134","0.50889, 0.63012, 0.83447","0.4494, 0.57426, 0.79097",What is the color of the previous image?,,2022-03-31_11h01.03.324,Representative Color,2021.2.3,MacIntel,60.0024001,3238,,,,,,
,,,,,,,,0.180616319,0.06125434,1,0,0,2.1152,fourthChoice,3,"0.30588, 0.12549, 0.043137",8,0,11,11,14,1,resources/t1Model-yl.png,"0.43529, 0.22353, 0.12157","0.48425, 0.24604, 0.13103","0.74365, 0.40389, 0.19507","0.56078, 0.26667, 0.1451","0.35294, 0.16078, 0.070588","0.6, 0.35294, 0.22353","0.55294, 0.31373, 0.19216","0.30588, 0.12549, 0.043137",What is the color of the previous image?,,2022-03-31_11h01.03.324,Representative Color,2021.2.3,MacIntel,60.0024001,3238,,,,,,
,,,,,,,,-0.041427951,0.163111979,1,0,0,1.7981,firstChoice,0,"0.72157, 0.47059, 0.33333",5,0,12,12,3,1,resources/t1Model-A.png,"0.60784, 0.39216, 0.26667","0.59216, 0.31765, 0.21569","0.66468, 0.4273, 0.28886","0.64755, 0.3451, 0.23286","0.72157, 0.47059, 0.33333","0.42353, 0.18824, 0.094118","0.50588, 0.29804, 0.19608","0.56078, 0.3451, 0.23529",What is the color of the previous image?,,2022-03-31_11h01.03.324,Representative Color,2021.2.3,MacIntel,60.0024001,3238,,,,,,
,,,,,,,,0.068615451,0.167048611,1,0,0,2.2812,secondChoice,1,"0.6843, 0.46832, 0.35448",5,0,13,13,8,1,resources/t1Model-M.png,"0.72549, 0.51373, 0.4","0.65098, 0.35294, 0.25098","0.78605, 0.55541, 0.43138","0.68985, 0.4335, 0.3243","0.6843, 0.46832, 0.35448","0.71971, 0.45365, 0.33937","0.73744, 0.47932, 0.37149","0.71412, 0.48874, 0.36979",What is the color of the previous image?,,2022-03-31_11h01.03.324,Representative Color,2021.2.3,MacIntel,60.0024001,3238,,,,,,
,,,,,,,,0.066462674,0.175690104,1,0,0,3.732,secondChoice,1,"0.78972, 0.56355, 0.43105",2,0,14,14,12,1,resources/t1Model-Y.png,"0.72941, 0.52157, 0.4","0.78972, 0.56355, 0.43105","0.64714, 0.32317, 0.22415","0.62353, 0.34902, 0.22353","0.59216, 0.29804, 0.20784","0.6902, 0.47843, 0.36471","0.80392, 0.60392, 0.49412","0.60784, 0.39216, 0.26275",What is the color of the previous image?,,2022-03-31_11h01.03.324,Representative Color,2021.2.3,MacIntel,60.0024001,3238,,,,,,
,,,,,,,,0.068732639,-0.198046875,1,0,0,2.565,eighthChoice,7,"0.16863, 0.027451, 0.035294",1,0,15,15,1,1,resources/t1DSC_0021.png,"0.16863, 0.027451, 0.035294","0.34118, 0.023529, 0.05098","0.37836, 0.0080068, 0.055199","0.37255, 0.12157, 0.18431","0.34902, 0.043137, 0.094118","0.41569, 0.23529, 0.29804","0.21569, 0.0078431, 0.019608","0.44314, 0.16863, 0.21961",What is the color of the previous image?,,2022-03-31_11h01.03.324,Representative Color,2021.2.3,MacIntel,60.0024001,3238,,,,,,
,,,,,,,,-0.06733941,-0.189075521,1,0,0,1.6797,seventhChoice,6,"0.58137, 0.34036, 0.18379",8,0,16,16,13,1,resources/t1Model-ll.png,"0.59608, 0.36863, 0.23137","0.66275, 0.4, 0.21961","0.71741, 0.4315, 0.23453","0.65882, 0.43137, 0.29412","0.62936, 0.38426, 0.22577","0.54887, 0.3251, 0.1898","0.68099, 0.43522, 0.27061","0.58137, 0.34036, 0.18379",What is the color of the previous image?,,2022-03-31_11h01.03.324,Representative Color,2021.2.3,MacIntel,60.0024001,3238,,,,,,
,,,,,,,,0.085438368,-0.186488715,1,0,0,1.1642,eighthChoice,7,"0.79608, 0.58039, 0.45098",7,0,17,17,10,1,resources/t1Model-Ol.png,"0.69412, 0.47451, 0.35294","0.7537, 0.51393, 0.381","0.75045, 0.43076, 0.25995","0.56863, 0.2902, 0.18039","0.52941, 0.28235, 0.15294","0.69412, 0.4, 0.24314","0.79608, 0.58039, 0.45098","0.58431, 0.37255, 0.24706",What is the color of the previous image?,,2022-03-31_11h01.03.324,Representative Color,2021.2.3,MacIntel,60.0024001,3238,,,,,,
,,,,,,,,-0.183068576,-0.064500868,1,0,0,1.2304,fifthChoice,4,"0.62839, 0.6118, 0.50808",6,0,18,18,0,1,resources/t1DSC_0016.png,"0.6, 0.58039, 0.4549","0.6564, 0.64356, 0.5619","0.65167, 0.63033, 0.49287","0.60392, 0.59216, 0.50196","0.60392, 0.60392, 0.55686","0.62839, 0.6118, 0.50808","0.62574, 0.60526, 0.47382","0.60418, 0.59802, 0.5294",What is the color of the previous image?,,2022-03-31_11h01.03.324,Representative Color,2021.2.3,MacIntel,60.0024001,3238,,,,,,
,,,,,,,,-0.071484375,0.158025174,1,0,0,2.9815,firstChoice,0,"0.66902, 0.33001, 0.19272",4,0,19,19,6,1,resources/t1Model-L.png,"0.52549, 0.2902, 0.16471","0.61569, 0.30588, 0.18039","0.57757, 0.31686, 0.1774","0.66902, 0.33001, 0.19272","0.47843, 0.25098, 0.13333","0.65882, 0.4, 0.25882","0.61176, 0.36078, 0.23137","0.41961, 0.20784, 0.094118",What is the color of the previous image?,,2022-03-31_11h01.03.324,Representative Color,2021.2.3,MacIntel,60.0024001,3238,,,,,,
,,,,,,,,,,,,,,,,,,,,,,,,,,,,,,,,,,2022-03-31_11h01.03.324,Representative Color,2021.2.3,MacIntel,60.0024001,3238,0,1,1,1,1,resources/trialScramble.xlsx
,,,,,,,,0.177612847,0.072795139,1,0,0,2.2149,fourthChoice,3,"0.7537, 0.51393, 0.381",2,0,0,0,10,1,resources/t2Model-Ol.png,"0.69412, 0.47451, 0.35294","0.7537, 0.51393, 0.381","0.75045, 0.43076, 0.25995","0.56863, 0.2902, 0.18039","0.52941, 0.28235, 0.15294","0.69412, 0.4, 0.24314","0.79608, 0.58039, 0.45098","0.58431, 0.37255, 0.24706",What is the color of the previous image?,,2022-03-31_11h01.03.324,Representative Color,2021.2.3,MacIntel,60.0024001,3238,,,,,,
,,,,,,,,-0.212643229,0.074366319,1,0,0,1.8644,thirdChoice,2,"0.66468, 0.4273, 0.28886",3,0,1,1,3,1,resources/t2Model-A.png,"0.60784, 0.39216, 0.26667","0.59216, 0.31765, 0.21569","0.66468, 0.4273, 0.28886","0.64755, 0.3451, 0.23286","0.72157, 0.47059, 0.33333","0.42353, 0.18824, 0.094118","0.50588, 0.29804, 0.19608","0.56078, 0.3451, 0.23529",What is the color of the previous image?,,2022-03-31_11h01.03.324,Representative Color,2021.2.3,MacIntel,60.0024001,3238,,,,,,
,,,,,,,,-0.167204861,0.070820312,1,0,0,3.1648,thirdChoice,2,"0.65882, 0.4, 0.25882",6,0,2,2,6,1,resources/t2Model-L.png,"0.52549, 0.2902, 0.16471","0.61569, 0.30588, 0.18039","0.57757, 0.31686, 0.1774","0.66902, 0.33001, 0.19272","0.47843, 0.25098, 0.13333","0.65882, 0.4, 0.25882","0.61176, 0.36078, 0.23137","0.41961, 0.20784, 0.094118",What is the color of the previous image?,,2022-03-31_11h01.03.324,Representative Color,2021.2.3,MacIntel,60.0024001,3238,,,,,,
,,,,,,,,-0.048046875,0.185603299,1,0,0,4.9818,firstChoice,0,"0.48425, 0.24604, 0.13103",2,0,3,3,14,1,resources/t2Model-yl.png,"0.43529, 0.22353, 0.12157","0.48425, 0.24604, 0.13103","0.74365, 0.40389, 0.19507","0.56078, 0.26667, 0.1451","0.35294, 0.16078, 0.070588","0.6, 0.35294, 0.22353","0.55294, 0.31373, 0.19216","0.30588, 0.12549, 0.043137",What is the color of the previous image?,,2022-03-31_11h01.03.324,Representative Color,2021.2.3,MacIntel,60.0024001,3238,,,,,,
,,,,,,,,-0.198988715,-0.075746528,1,0,0,3.9135,fifthChoice,4,"0.78605, 0.55541, 0.43138",3,0,4,4,8,1,resources/t2Model-M.png,"0.72549, 0.51373, 0.4","0.65098, 0.35294, 0.25098","0.78605, 0.55541, 0.43138","0.68985, 0.4335, 0.3243","0.6843, 0.46832, 0.35448","0.71971, 0.45365, 0.33937","0.73744, 0.47932, 0.37149","0.71412, 0.48874, 0.36979",What is the color of the previous image?,,2022-03-31_11h01.03.324,Representative Color,2021.2.3,MacIntel,60.0024001,3238,,,,,,
,,,,,,,,0.068697917,-0.197482639,1,0,0,1.9643,eighthChoice,7,"0.79859, 0.58507, 0.48676",2,0,5,5,4,1,resources/t2Model-B.png,"0.73725, 0.54118, 0.45098","0.79859, 0.58507, 0.48676","0.72531, 0.40323, 0.30464","0.71373, 0.40784, 0.36078","0.8, 0.48235, 0.4","0.68235, 0.44314, 0.33333","0.64706, 0.45882, 0.36471","0.71765, 0.49804, 0.41176",What is the color of the previous image?,,2022-03-31_11h01.03.324,Representative Color,2021.2.3,MacIntel,60.0024001,3238,,,,,,
,,,,,,,,0.066545139,0.155520833,1,0,0,3.0806,secondChoice,1,"0.8714, 0.46756, 0.23566",2,0,6,6,16,1,resources/t2mysteryLightOr_hdrOff.png,"0.81569, 0.43922, 0.22353","0.8714, 0.46756, 0.23566","0.91794, 0.40919, 0.093393","0.77255, 0.29804, 0.07451","0.9098, 0.55294, 0.30196","0.88627, 0.50196, 0.23922","0.72941, 0.36471, 0.19608","0.81569, 0.36863, 0.13333",What is the color of the previous image?,,2022-03-31_11h01.03.324,Representative Color,2021.2.3,MacIntel,60.0024001,3238,,,,,,
,,,,,,,,0.078845486,-0.161809896,1,0,0,6.2469,eighthChoice,7,"0.62375, 0.38114, 0.24213",3,0,7,7,11,1,resources/t2Model-R.png,"0.56863, 0.34902, 0.22353","0.54902, 0.27843, 0.15686","0.62375, 0.38114, 0.24213","0.60078, 0.30229, 0.16803","0.48235, 0.24314, 0.13333","0.65098, 0.41176, 0.28235","0.49412, 0.28627, 0.16471","0.54118, 0.31373, 0.19216",What is the color of the previous image?,,2022-03-31_11h01.03.324,Representative Color,2021.2.3,MacIntel,60.0024001,3238,,,,,,
,,,,,,,,-0.05797309,-0.20609375,1,0,0,1.8642,seventhChoice,6,"0.52414, 0.27049, 0.13884",2,0,8,8,5,1,resources/t2Model-J.png,"0.74118, 0.41961, 0.23529","0.52414, 0.27049, 0.13884","0.79714, 0.44966, 0.25005","0.63529, 0.38824, 0.21569","0.70588, 0.43922, 0.2549","0.64314, 0.33725, 0.18431","0.56863, 0.32157, 0.19216","0.4549, 0.23137, 0.12157",What is the color of the previous image?,,2022-03-31_11h01.03.324,Representative Color,2021.2.3,MacIntel,60.0024001,3238,,,,,,
,,,,,,,,-0.145750868,-0.047621528,1,0,0,2.5309,fifthChoice,4,"0.73725, 0.52941, 0.38431",1,0,9,9,7,1,resources/t2Model-LC.png,"0.73725, 0.52941, 0.38431","0.79679, 0.57109, 0.41322","0.66488, 0.37758, 0.19682","0.58431, 0.32157, 0.18431","0.61176, 0.34902, 0.18431","0.68627, 0.47059, 0.32941","0.81569, 0.61176, 0.47843","0.63529, 0.42353, 0.27451",What is the color of the previous image?,,2022-03-31_11h01.03.324,Representative Color,2021.2.3,MacIntel,60.0024001,3238,,,,,,
,,,,,,,,0.177439236,0.081171875,1,0,0,3.8974,fourthChoice,3,"0.38431, 0.14902, 0.047059",4,0,10,10,9,1,resources/t2Model-O.png,"0.31765, 0.15686, 0.090196","0.36342, 0.17598, 0.098248","0.55928, 0.25965, 0.13367","0.38431, 0.14902, 0.047059","0.22745, 0.098039, 0.05098","0.27161, 0.12707, 0.072951","0.41066, 0.19954, 0.10607","0.30444, 0.12352, 0.051246",What is the color of the previous image?,,2022-03-31_11h01.03.324,Representative Color,2021.2.3,MacIntel,60.0024001,3238,,,,,,
,,,,,,,,-0.053472222,0.161480035,1,0,0,6.2652,firstChoice,0,"0.44314, 0.16863, 0.21961",8,0,11,11,1,1,resources/t2DSC_0021.png,"0.16863, 0.027451, 0.035294","0.34118, 0.023529, 0.05098","0.37836, 0.0080068, 0.055199","0.37255, 0.12157, 0.18431","0.34902, 0.043137, 0.094118","0.41569, 0.23529, 0.29804","0.21569, 0.0078431, 0.019608","0.44314, 0.16863, 0.21961",What is the color of the previous image?,,2022-03-31_11h01.03.324,Representative Color,2021.2.3,MacIntel,60.0024001,3238,,,,,,
,,,,,,,,0.172482639,-0.048333333,1,0,0,1.782,sixthChoice,5,"0.48627, 0.6, 0.78824",5,0,12,12,18,1,resources/t2sky.png,"0.38039, 0.50588, 0.72941","0.60278, 0.71367, 0.87522","0.41001, 0.54883, 0.79353","0.54118, 0.65098, 0.81961","0.48627, 0.6, 0.78824","0.39516, 0.52728, 0.76134","0.50889, 0.63012, 0.83447","0.4494, 0.57426, 0.79097",What is the color of the previous image?,,2022-03-31_11h01.03.324,Representative Color,2021.2.3,MacIntel,60.0024001,3238,,,,,,
,,,,,,,,-0.162630208,0.053528646,1,0,0,1.7485,thirdChoice,2,"0.28046, 0.35484, 0.15506",8,0,13,13,19,1,resources/t2zgrass.png,"0.30588, 0.41569, 0.18824","0.36341, 0.42546, 0.21823","0.33318, 0.45547, 0.20282","0.32157, 0.38039, 0.19216","0.27231, 0.37211, 0.15269","0.31422, 0.39807, 0.19031","0.34895, 0.44055, 0.21071","0.28046, 0.35484, 0.15506",What is the color of the previous image?,,2022-03-31_11h01.03.324,Representative Color,2021.2.3,MacIntel,60.0024001,3238,,,,,,
,,,,,,,,0.188190104,0.053172743,1,0,0,1.9984,fourthChoice,3,"0.33333, 0.019608, 0.031373",6,0,14,14,2,1,resources/t2DSC_0025.png,"0.39608, 0.058824, 0.070588","0.21431, 0.034629, 0.057098","0.43656, 0.051112, 0.07439","0.51373, 0.35294, 0.40784","0.21961, 0.086275, 0.12549","0.33333, 0.019608, 0.031373","0.36078, 0.26667, 0.32157","0.48235, 0.22745, 0.26275",What is the color of the previous image?,,2022-03-31_11h01.03.324,Representative Color,2021.2.3,MacIntel,60.0024001,3238,,,,,,
,,,,,,,,-0.082209201,-0.17296875,1,0,0,1.6964,seventhChoice,6,"0.78972, 0.56355, 0.43105",2,0,15,15,12,1,resources/t2Model-Y.png,"0.72941, 0.52157, 0.4","0.78972, 0.56355, 0.43105","0.64714, 0.32317, 0.22415","0.62353, 0.34902, 0.22353","0.59216, 0.29804, 0.20784","0.6902, 0.47843, 0.36471","0.80392, 0.60392, 0.49412","0.60784, 0.39216, 0.26275",What is the color of the previous image?,,2022-03-31_11h01.03.324,Representative Color,2021.2.3,MacIntel,60.0024001,3238,,,,,,
,,,,,,,,0.168923611,-0.086072049,1,0,0,4.8163,sixthChoice,5,"0.6564, 0.64356, 0.5619",2,0,16,16,0,1,resources/t2DSC_0016.png,"0.6, 0.58039, 0.4549","0.6564, 0.64356, 0.5619","0.65167, 0.63033, 0.49287","0.60392, 0.59216, 0.50196","0.60392, 0.60392, 0.55686","0.62839, 0.6118, 0.50808","0.62574, 0.60526, 0.47382","0.60418, 0.59802, 0.5294",What is the color of the previous image?,,2022-03-31_11h01.03.324,Representative Color,2021.2.3,MacIntel,60.0024001,3238,,,,,,
,,,,,,,,0.175642361,0.040603299,1,0,0,2.2488,fourthChoice,3,"0.58137, 0.34036, 0.18379",8,0,17,17,13,1,resources/t2Model-ll.png,"0.59608, 0.36863, 0.23137","0.66275, 0.4, 0.21961","0.71741, 0.4315, 0.23453","0.65882, 0.43137, 0.29412","0.62936, 0.38426, 0.22577","0.54887, 0.3251, 0.1898","0.68099, 0.43522, 0.27061","0.58137, 0.34036, 0.18379",What is the color of the previous image?,,2022-03-31_11h01.03.324,Representative Color,2021.2.3,MacIntel,60.0024001,3238,,,,,,
,,,,,,,,-0.071362847,-0.179392361,1,0,0,1.7481,seventhChoice,6,"0.60784, 0.52941, 0.18824",7,0,18,18,15,1,resources/t2green22days1_hdrOff.png,"0.68235, 0.57255, 0.20784","0.72549, 0.62353, 0.15686","0.76987, 0.66176, 0.16087","0.82745, 0.62745, 0.21569","0.70588, 0.53725, 0.12549","0.7451, 0.66275, 0.27451","0.60784, 0.52941, 0.18824","0.65098, 0.51373, 0.18824",What is the color of the previous image?,,2022-03-31_11h01.03.324,Representative Color,2021.2.3,MacIntel,60.0024001,3238,,,,,,
,,,,,,,,-0.146618924,0.07671441,1,0,0,1.9635,thirdChoice,2,"0.35294, 0.47451, 0.15294",1,0,19,19,17,1,resources/t2zpeppers.png,"0.35294, 0.47451, 0.15294","0.48235, 0.63529, 0.13725","0.37942, 0.51262, 0.16068","0.5104, 0.6743, 0.13948","0.41176, 0.59216, 0.11373","0.417, 0.55383, 0.14817","0.38255, 0.53277, 0.1372","0.44713, 0.61369, 0.1255",What is the color of the previous image?,,2022-03-31_11h01.03.324,Representative Color,2021.2.3,MacIntel,60.0024001,3238,,,,,,
,,,,,,,,,,,,,,,,,,,,,,,,,,,,,,,,,,2022-03-31_11h01.03.324,Representative Color,2021.2.3,MacIntel,60.0024001,3238,0,2,2,2,1,resources/trialSixteen.xlsx
,,,,,,,,-0.180329861,0.039249132,1,0,0,2.7652,thirdChoice,2,"0.78605, 0.55541, 0.43138",3,0,0,0,8,1,resources/t3Model-M.png,"0.72549, 0.51373, 0.4","0.65098, 0.35294, 0.25098","0.78605, 0.55541, 0.43138","0.68985, 0.4335, 0.3243","0.6843, 0.46832, 0.35448","0.71971, 0.45365, 0.33937","0.73744, 0.47932, 0.37149","0.71412, 0.48874, 0.36979",What is the color of the previous image?,,2022-03-31_11h01.03.324,Representative Color,2021.2.3,MacIntel,60.0024001,3238,,,,,,
,,,,,,,,0.165190972,0.040742187,1,0,0,2.0662,fourthChoice,3,"0.79608, 0.58039, 0.45098",7,0,1,1,10,1,resources/t3Model-Ol.png,"0.69412, 0.47451, 0.35294","0.7537, 0.51393, 0.381","0.75045, 0.43076, 0.25995","0.56863, 0.2902, 0.18039","0.52941, 0.28235, 0.15294","0.69412, 0.4, 0.24314","0.79608, 0.58039, 0.45098","0.58431, 0.37255, 0.24706",What is the color of the previous image?,,2022-03-31_11h01.03.324,Representative Color,2021.2.3,MacIntel,60.0024001,3238,,,,,,
,,,,,,,,0.150060764,0.041067708,1,0,0,2.8824,fourthChoice,3,"0.68099, 0.43522, 0.27061",7,0,2,2,13,1,resources/t3Model-ll.png,"0.59608, 0.36863, 0.23137","0.66275, 0.4, 0.21961","0.71741, 0.4315, 0.23453","0.65882, 0.43137, 0.29412","0.62936, 0.38426, 0.22577","0.54887, 0.3251, 0.1898","0.68099, 0.43522, 0.27061","0.58137, 0.34036, 0.18379",What is the color of the previous image?,,2022-03-31_11h01.03.324,Representative Color,2021.2.3,MacIntel,60.0024001,3238,,,,,,
,,,,,,,,-0.038615451,0.151302083,1,0,0,3.6986,firstChoice,0,"0.79679, 0.57109, 0.41322",2,0,3,3,7,1,resources/t3Model-LC.png,"0.73725, 0.52941, 0.38431","0.79679, 0.57109, 0.41322","0.66488, 0.37758, 0.19682","0.58431, 0.32157, 0.18431","0.61176, 0.34902, 0.18431","0.68627, 0.47059, 0.32941","0.81569, 0.61176, 0.47843","0.63529, 0.42353, 0.27451",What is the color of the previous image?,,2022-03-31_11h01.03.324,Representative Color,2021.2.3,MacIntel,60.0024001,3238,,,,,,
,,,,,,,,0.079730903,-0.152543403,1,0,0,2.9806,eighthChoice,7,"0.39608, 0.058824, 0.070588",1,0,4,4,2,1,resources/t3DSC_0025.png,"0.39608, 0.058824, 0.070588","0.21431, 0.034629, 0.057098","0.43656, 0.051112, 0.07439","0.51373, 0.35294, 0.40784","0.21961, 0.086275, 0.12549","0.33333, 0.019608, 0.031373","0.36078, 0.26667, 0.32157","0.48235, 0.22745, 0.26275",What is the color of the previous image?,,2022-03-31_11h01.03.324,Representative Color,2021.2.3,MacIntel,60.0024001,3238,,,,,,
,,,,,,,,-0.081102431,0.150772569,1,0,0,1.9806,firstChoice,0,"0.60278, 0.71367, 0.87522",2,0,5,5,18,1,resources/t3sky.png,"0.38039, 0.50588, 0.72941","0.60278, 0.71367, 0.87522","0.41001, 0.54883, 0.79353","0.54118, 0.65098, 0.81961","0.48627, 0.6, 0.78824","0.39516, 0.52728, 0.76134","0.50889, 0.63012, 0.83447","0.4494, 0.57426, 0.79097",What is the color of the previous image?,,2022-03-31_11h01.03.324,Representative Color,2021.2.3,MacIntel,60.0024001,3238,,,,,,
,,,,,,,,-0.054301215,-0.170655382,1,0,0,3.7145,seventhChoice,6,"0.43529, 0.22353, 0.12157",1,0,6,6,14,1,resources/t3Model-yl.png,"0.43529, 0.22353, 0.12157","0.48425, 0.24604, 0.13103","0.74365, 0.40389, 0.19507","0.56078, 0.26667, 0.1451","0.35294, 0.16078, 0.070588","0.6, 0.35294, 0.22353","0.55294, 0.31373, 0.19216","0.30588, 0.12549, 0.043137",What is the color of the previous image?,,2022-03-31_11h01.03.324,Representative Color,2021.2.3,MacIntel,60.0024001,3238,,,,,,
,,,,,,,,-0.171059028,-0.067638889,1,0,0,2.2477,fifthChoice,4,"0.37836, 0.0080068, 0.055199",3,0,7,7,1,1,resources/t3DSC_0021.png,"0.16863, 0.027451, 0.035294","0.34118, 0.023529, 0.05098","0.37836, 0.0080068, 0.055199","0.37255, 0.12157, 0.18431","0.34902, 0.043137, 0.094118","0.41569, 0.23529, 0.29804","0.21569, 0.0078431, 0.019608","0.44314, 0.16863, 0.21961",What is the color of the previous image?,,2022-03-31_11h01.03.324,Representative Color,2021.2.3,MacIntel,60.0024001,3238,,,,,,
,,,,,,,,0.192157118,0.079444444,1,0,0,1.9981,fourthChoice,3,"0.37942, 0.51262, 0.16068",3,0,8,8,17,1,resources/t3zpeppers.png,"0.35294, 0.47451, 0.15294","0.48235, 0.63529, 0.13725","0.37942, 0.51262, 0.16068","0.5104, 0.6743, 0.13948","0.41176, 0.59216, 0.11373","0.417, 0.55383, 0.14817","0.38255, 0.53277, 0.1372","0.44713, 0.61369, 0.1255",What is the color of the previous image?,,2022-03-31_11h01.03.324,Representative Color,2021.2.3,MacIntel,60.0024001,3238,,,,,,
,,,,,,,,-0.165898437,-0.082643229,1,0,0,1.8314,fifthChoice,4,"0.4549, 0.23137, 0.12157",8,0,9,9,5,1,resources/t3Model-J.png,"0.74118, 0.41961, 0.23529","0.52414, 0.27049, 0.13884","0.79714, 0.44966, 0.25005","0.63529, 0.38824, 0.21569","0.70588, 0.43922, 0.2549","0.64314, 0.33725, 0.18431","0.56863, 0.32157, 0.19216","0.4549, 0.23137, 0.12157",What is the color of the previous image?,,2022-03-31_11h01.03.324,Representative Color,2021.2.3,MacIntel,60.0024001,3238,,,,,,
,,,,,,,,0.191788194,0.029184028,1,0,0,2.0818,fourthChoice,3,"0.54118, 0.31373, 0.19216",8,0,10,10,11,1,resources/t3Model-R.png,"0.56863, 0.34902, 0.22353","0.54902, 0.27843, 0.15686","0.62375, 0.38114, 0.24213","0.60078, 0.30229, 0.16803","0.48235, 0.24314, 0.13333","0.65098, 0.41176, 0.28235","0.49412, 0.28627, 0.16471","0.54118, 0.31373, 0.19216",What is the color of the previous image?,,2022-03-31_11h01.03.324,Representative Color,2021.2.3,MacIntel,60.0024001,3238,,,,,,
,,,,,,,,-0.040056424,-0.208398438,1,0,0,2.8967,seventhChoice,6,"0.65882, 0.4, 0.25882",6,0,11,11,6,1,resources/t3Model-L.png,"0.52549, 0.2902, 0.16471","0.61569, 0.30588, 0.18039","0.57757, 0.31686, 0.1774","0.66902, 0.33001, 0.19272","0.47843, 0.25098, 0.13333","0.65882, 0.4, 0.25882","0.61176, 0.36078, 0.23137","0.41961, 0.20784, 0.094118",What is the color of the previous image?,,2022-03-31_11h01.03.324,Representative Color,2021.2.3,MacIntel,60.0024001,3238,,,,,,
,,,,,,,,0.207673611,-0.065230035,1,0,0,2.3646,sixthChoice,5,"0.72941, 0.52157, 0.4",1,0,12,12,12,1,resources/t3Model-Y.png,"0.72941, 0.52157, 0.4","0.78972, 0.56355, 0.43105","0.64714, 0.32317, 0.22415","0.62353, 0.34902, 0.22353","0.59216, 0.29804, 0.20784","0.6902, 0.47843, 0.36471","0.80392, 0.60392, 0.49412","0.60784, 0.39216, 0.26275",What is the color of the previous image?,,2022-03-31_11h01.03.324,Representative Color,2021.2.3,MacIntel,60.0024001,3238,,,,,,
,,,,,,,,0.081011285,0.165677083,1,0,0,1.5153,secondChoice,1,"0.6564, 0.64356, 0.5619",2,0,13,13,0,1,resources/t3DSC_0016.png,"0.6, 0.58039, 0.4549","0.6564, 0.64356, 0.5619","0.65167, 0.63033, 0.49287","0.60392, 0.59216, 0.50196","0.60392, 0.60392, 0.55686","0.62839, 0.6118, 0.50808","0.62574, 0.60526, 0.47382","0.60418, 0.59802, 0.5294",What is the color of the previous image?,,2022-03-31_11h01.03.324,Representative Color,2021.2.3,MacIntel,60.0024001,3238,,,,,,
,,,,,,,,0.047469618,0.150603299,1,0,0,2.1676,secondChoice,1,"0.79859, 0.58507, 0.48676",2,0,14,14,4,1,resources/t3Model-B.png,"0.73725, 0.54118, 0.45098","0.79859, 0.58507, 0.48676","0.72531, 0.40323, 0.30464","0.71373, 0.40784, 0.36078","0.8, 0.48235, 0.4","0.68235, 0.44314, 0.33333","0.64706, 0.45882, 0.36471","0.71765, 0.49804, 0.41176",What is the color of the previous image?,,2022-03-31_11h01.03.324,Representative Color,2021.2.3,MacIntel,60.0024001,3238,,,,,,
,,,,,,,,0.052951389,0.147269965,1,0,0,2.6164,secondChoice,1,"0.60784, 0.52941, 0.18824",7,0,15,15,15,1,resources/t3green22days1_hdrOff.png,"0.68235, 0.57255, 0.20784","0.72549, 0.62353, 0.15686","0.76987, 0.66176, 0.16087","0.82745, 0.62745, 0.21569","0.70588, 0.53725, 0.12549","0.7451, 0.66275, 0.27451","0.60784, 0.52941, 0.18824","0.65098, 0.51373, 0.18824",What is the color of the previous image?,,2022-03-31_11h01.03.324,Representative Color,2021.2.3,MacIntel,60.0024001,3238,,,,,,
,,,,,,,,0.196979167,-0.081219618,1,0,0,1.3971,sixthChoice,5,"0.28046, 0.35484, 0.15506",8,0,16,16,19,1,resources/t3zgrass.png,"0.30588, 0.41569, 0.18824","0.36341, 0.42546, 0.21823","0.33318, 0.45547, 0.20282","0.32157, 0.38039, 0.19216","0.27231, 0.37211, 0.15269","0.31422, 0.39807, 0.19031","0.34895, 0.44055, 0.21071","0.28046, 0.35484, 0.15506",What is the color of the previous image?,,2022-03-31_11h01.03.324,Representative Color,2021.2.3,MacIntel,60.0024001,3238,,,,,,
,,,,,,,,-0.044908854,-0.163767361,1,0,0,2.8154,seventhChoice,6,"0.81569, 0.43922, 0.22353",1,0,17,17,16,1,resources/t3mysteryLightOr_hdrOff.png,"0.81569, 0.43922, 0.22353","0.8714, 0.46756, 0.23566","0.91794, 0.40919, 0.093393","0.77255, 0.29804, 0.07451","0.9098, 0.55294, 0.30196","0.88627, 0.50196, 0.23922","0.72941, 0.36471, 0.19608","0.81569, 0.36863, 0.13333",What is the color of the previous image?,,2022-03-31_11h01.03.324,Representative Color,2021.2.3,MacIntel,60.0024001,3238,,,,,,
,,,,,,,,-0.155625,0.030972222,1,0,0,1.6495,thirdChoice,2,"0.30444, 0.12352, 0.051246",8,0,18,18,9,1,resources/t3Model-O.png,"0.31765, 0.15686, 0.090196","0.36342, 0.17598, 0.098248","0.55928, 0.25965, 0.13367","0.38431, 0.14902, 0.047059","0.22745, 0.098039, 0.05098","0.27161, 0.12707, 0.072951","0.41066, 0.19954, 0.10607","0.30444, 0.12352, 0.051246",What is the color of the previous image?,,2022-03-31_11h01.03.324,Representative Color,2021.2.3,MacIntel,60.0024001,3238,,,,,,
,,,,,,,,0.070247396,0.158116319,1,0,0,1.8643,secondChoice,1,"0.72157, 0.47059, 0.33333",5,0,19,19,3,1,resources/t3Model-A.png,"0.60784, 0.39216, 0.26667","0.59216, 0.31765, 0.21569","0.66468, 0.4273, 0.28886","0.64755, 0.3451, 0.23286","0.72157, 0.47059, 0.33333","0.42353, 0.18824, 0.094118","0.50588, 0.29804, 0.19608","0.56078, 0.3451, 0.23529",What is the color of the previous image?,,2022-03-31_11h01.03.324,Representative Color,2021.2.3,MacIntel,60.0024001,3238,,,,,,
,,,,,,,,,,,,,,,,,,,,,,,,,,,,,,,,,,2022-03-31_11h01.03.324,Representative Color,2021.2.3,MacIntel,60.0024001,3238,0,3,3,3,1,resources/trialSixtyFour.xlsx
,,,,,,,,-0.159231771,-0.0753125,1,0,0,3.4789,fifthChoice,4,"0.36342, 0.17598, 0.098248",2,0,0,0,9,1,resources/t4Model-O.png,"0.31765, 0.15686, 0.090196","0.36342, 0.17598, 0.098248","0.55928, 0.25965, 0.13367","0.38431, 0.14902, 0.047059","0.22745, 0.098039, 0.05098","0.27161, 0.12707, 0.072951","0.41066, 0.19954, 0.10607","0.30444, 0.12352, 0.051246",What is the color of the person's skin in the previous image?,,2022-03-31_11h01.03.324,Representative Color,2021.2.3,MacIntel,60.0024001,3238,,,,,,
,,,,,,,,0.067790799,-0.188003472,1,0,0,3.6299,eighthChoice,7,"0.72549, 0.62353, 0.15686",2,0,1,1,15,1,resources/t4green22days1_hdrOff.png,"0.68235, 0.57255, 0.20784","0.72549, 0.62353, 0.15686","0.76987, 0.66176, 0.16087","0.82745, 0.62745, 0.21569","0.70588, 0.53725, 0.12549","0.7451, 0.66275, 0.27451","0.60784, 0.52941, 0.18824","0.65098, 0.51373, 0.18824",What is the color of the tomato in the previous image?,,2022-03-31_11h01.03.324,Representative Color,2021.2.3,MacIntel,60.0024001,3238,,,,,,
,,,,,,,,0.20203559,0.067569444,1,0,0,2.9804,fourthChoice,3,"0.62375, 0.38114, 0.24213",3,0,2,2,11,1,resources/t4Model-R.png,"0.56863, 0.34902, 0.22353","0.54902, 0.27843, 0.15686","0.62375, 0.38114, 0.24213","0.60078, 0.30229, 0.16803","0.48235, 0.24314, 0.13333","0.65098, 0.41176, 0.28235","0.49412, 0.28627, 0.16471","0.54118, 0.31373, 0.19216",What is the color of the person's skin in the previous image?,,2022-03-31_11h01.03.324,Representative Color,2021.2.3,MacIntel,60.0024001,3238,,,,,,
,,,,,,,,-0.143168403,0.05484809,1,0,0,1.9958,thirdChoice,2,"0.65167, 0.63033, 0.49287",3,0,3,3,0,1,resources/t4DSC_0016.png,"0.6, 0.58039, 0.4549","0.6564, 0.64356, 0.5619","0.65167, 0.63033, 0.49287","0.60392, 0.59216, 0.50196","0.60392, 0.60392, 0.55686","0.62839, 0.6118, 0.50808","0.62574, 0.60526, 0.47382","0.60418, 0.59802, 0.5294",What is the color of the wine in the previous image?,,2022-03-31_11h01.03.324,Representative Color,2021.2.3,MacIntel,60.0024001,3238,,,,,,
,,,,,,,,-0.177296007,0.091974826,1,0,0,3.8633,thirdChoice,2,"0.50889, 0.63012, 0.83447",7,0,4,4,18,1,resources/t4sky.png,"0.38039, 0.50588, 0.72941","0.60278, 0.71367, 0.87522","0.41001, 0.54883, 0.79353","0.54118, 0.65098, 0.81961","0.48627, 0.6, 0.78824","0.39516, 0.52728, 0.76134","0.50889, 0.63012, 0.83447","0.4494, 0.57426, 0.79097",What is the color of the sky in the previous image?,,2022-03-31_11h01.03.324,Representative Color,2021.2.3,MacIntel,60.0024001,3238,,,,,,
,,,,,,,,0.161597222,0.060881076,1,0,0,4.5456,fourthChoice,3,"0.65882, 0.43137, 0.29412",4,0,5,5,13,1,resources/t4Model-ll.png,"0.59608, 0.36863, 0.23137","0.66275, 0.4, 0.21961","0.71741, 0.4315, 0.23453","0.65882, 0.43137, 0.29412","0.62936, 0.38426, 0.22577","0.54887, 0.3251, 0.1898","0.68099, 0.43522, 0.27061","0.58137, 0.34036, 0.18379",What is the color of the person's skin in the previous image?,,2022-03-31_11h01.03.324,Representative Color,2021.2.3,MacIntel,60.0024001,3238,,,,,,
,,,,,,,,-0.050672743,0.158993056,1,0,0,2.5461,firstChoice,0,"0.37836, 0.0080068, 0.055199",3,0,6,6,1,1,resources/t4DSC_0021.png,"0.16863, 0.027451, 0.035294","0.34118, 0.023529, 0.05098","0.37836, 0.0080068, 0.055199","0.37255, 0.12157, 0.18431","0.34902, 0.043137, 0.094118","0.41569, 0.23529, 0.29804","0.21569, 0.0078431, 0.019608","0.44314, 0.16863, 0.21961",What is the color of the wine in the previous image?,,2022-03-31_11h01.03.324,Representative Color,2021.2.3,MacIntel,60.0024001,3238,,,,,,
,,,,,,,,-0.161358507,0.052361111,1,0,0,1.6303,thirdChoice,2,"0.72549, 0.51373, 0.4",1,0,7,7,8,1,resources/t4Model-M.png,"0.72549, 0.51373, 0.4","0.65098, 0.35294, 0.25098","0.78605, 0.55541, 0.43138","0.68985, 0.4335, 0.3243","0.6843, 0.46832, 0.35448","0.71971, 0.45365, 0.33937","0.73744, 0.47932, 0.37149","0.71412, 0.48874, 0.36979",What is the color of the person's skin in the previous image?,,2022-03-31_11h01.03.324,Representative Color,2021.2.3,MacIntel,60.0024001,3238,,,,,,
,,,,,,,,0.067452257,0.175351563,1,0,0,2.4664,secondChoice,1,"0.79679, 0.57109, 0.41322",2,0,8,8,7,1,resources/t4Model-LC.png,"0.73725, 0.52941, 0.38431","0.79679, 0.57109, 0.41322","0.66488, 0.37758, 0.19682","0.58431, 0.32157, 0.18431","0.61176, 0.34902, 0.18431","0.68627, 0.47059, 0.32941","0.81569, 0.61176, 0.47843","0.63529, 0.42353, 0.27451",What is the color of the person's skin in the previous image?,,2022-03-31_11h01.03.324,Representative Color,2021.2.3,MacIntel,60.0024001,3238,,,,,,
,,,,,,,,0.072452257,-0.16719184,1,0,0,2.564,eighthChoice,7,"0.52549, 0.2902, 0.16471",1,0,9,9,6,1,resources/t4Model-L.png,"0.52549, 0.2902, 0.16471","0.61569, 0.30588, 0.18039","0.57757, 0.31686, 0.1774","0.66902, 0.33001, 0.19272","0.47843, 0.25098, 0.13333","0.65882, 0.4, 0.25882","0.61176, 0.36078, 0.23137","0.41961, 0.20784, 0.094118",What is the color of the person's skin in the previous image?,,2022-03-31_11h01.03.324,Representative Color,2021.2.3,MacIntel,60.0024001,3238,,,,,,
,,,,,,,,-0.164769965,-0.073133681,1,0,0,3.5632,fifthChoice,4,"0.8714, 0.46756, 0.23566",2,0,10,10,16,1,resources/t4mysteryLightOr_hdrOff.png,"0.81569, 0.43922, 0.22353","0.8714, 0.46756, 0.23566","0.91794, 0.40919, 0.093393","0.77255, 0.29804, 0.07451","0.9098, 0.55294, 0.30196","0.88627, 0.50196, 0.23922","0.72941, 0.36471, 0.19608","0.81569, 0.36863, 0.13333",What is the color of the tomato in the previous image?,,2022-03-31_11h01.03.324,Representative Color,2021.2.3,MacIntel,60.0024001,3238,,,,,,
,,,,,,,,-0.154296875,-0.074305556,1,0,0,3.4954,fifthChoice,4,"0.43656, 0.051112, 0.07439",3,0,11,11,2,1,resources/t4DSC_0025.png,"0.39608, 0.058824, 0.070588","0.21431, 0.034629, 0.057098","0.43656, 0.051112, 0.07439","0.51373, 0.35294, 0.40784","0.21961, 0.086275, 0.12549","0.33333, 0.019608, 0.031373","0.36078, 0.26667, 0.32157","0.48235, 0.22745, 0.26275",What is the color of the wine in the previous image?,,2022-03-31_11h01.03.324,Representative Color,2021.2.3,MacIntel,60.0024001,3238,,,,,,
,,,,,,,,0.071749132,-0.158190104,1,0,0,1.9799,eighthChoice,7,"0.6902, 0.47843, 0.36471",6,0,12,12,12,1,resources/t4Model-Y.png,"0.72941, 0.52157, 0.4","0.78972, 0.56355, 0.43105","0.64714, 0.32317, 0.22415","0.62353, 0.34902, 0.22353","0.59216, 0.29804, 0.20784","0.6902, 0.47843, 0.36471","0.80392, 0.60392, 0.49412","0.60784, 0.39216, 0.26275",What is the color of the person's skin in the previous image?,,2022-03-31_11h01.03.324,Representative Color,2021.2.3,MacIntel,60.0024001,3238,,,,,,
,,,,,,,,-0.087291667,-0.187717014,1,0,0,2.4629,seventhChoice,6,"0.38255, 0.53277, 0.1372",7,0,13,13,17,1,resources/t4zpeppers.png,"0.35294, 0.47451, 0.15294","0.48235, 0.63529, 0.13725","0.37942, 0.51262, 0.16068","0.5104, 0.6743, 0.13948","0.41176, 0.59216, 0.11373","0.417, 0.55383, 0.14817","0.38255, 0.53277, 0.1372","0.44713, 0.61369, 0.1255",What is the color of the peppers in the previous image?,,2022-03-31_11h01.03.324,Representative Color,2021.2.3,MacIntel,60.0024001,3238,,,,,,
,,,,,,,,-0.182417535,0.026302083,1,0,0,1.5136,thirdChoice,2,"0.60784, 0.39216, 0.26667",1,0,14,14,3,1,resources/t4Model-A.png,"0.60784, 0.39216, 0.26667","0.59216, 0.31765, 0.21569","0.66468, 0.4273, 0.28886","0.64755, 0.3451, 0.23286","0.72157, 0.47059, 0.33333","0.42353, 0.18824, 0.094118","0.50588, 0.29804, 0.19608","0.56078, 0.3451, 0.23529",What is the color of the person's skin in the previous image?,,2022-03-31_11h01.03.324,Representative Color,2021.2.3,MacIntel,60.0024001,3238,,,,,,
,,,,,,,,0.193051215,0.034474826,1,0,0,2.23,fourthChoice,3,"0.36341, 0.42546, 0.21823",2,0,15,15,19,1,resources/t4zgrass.png,"0.30588, 0.41569, 0.18824","0.36341, 0.42546, 0.21823","0.33318, 0.45547, 0.20282","0.32157, 0.38039, 0.19216","0.27231, 0.37211, 0.15269","0.31422, 0.39807, 0.19031","0.34895, 0.44055, 0.21071","0.28046, 0.35484, 0.15506",What is the color of the grass in the previous image?,,2022-03-31_11h01.03.324,Representative Color,2021.2.3,MacIntel,60.0024001,3238,,,,,,
,,,,,,,,-0.042708333,0.147100694,1,0,0,3.4972,firstChoice,0,"0.52414, 0.27049, 0.13884",2,0,16,16,5,1,resources/t4Model-J.png,"0.74118, 0.41961, 0.23529","0.52414, 0.27049, 0.13884","0.79714, 0.44966, 0.25005","0.63529, 0.38824, 0.21569","0.70588, 0.43922, 0.2549","0.64314, 0.33725, 0.18431","0.56863, 0.32157, 0.19216","0.4549, 0.23137, 0.12157",What is the color of the person's skin in the previous image?,,2022-03-31_11h01.03.324,Representative Color,2021.2.3,MacIntel,60.0024001,3238,,,,,,
,,,,,,,,-0.057790799,0.181827257,1,0,0,2.3153,firstChoice,0,"0.7537, 0.51393, 0.381",2,0,17,17,10,1,resources/t4Model-Ol.png,"0.69412, 0.47451, 0.35294","0.7537, 0.51393, 0.381","0.75045, 0.43076, 0.25995","0.56863, 0.2902, 0.18039","0.52941, 0.28235, 0.15294","0.69412, 0.4, 0.24314","0.79608, 0.58039, 0.45098","0.58431, 0.37255, 0.24706",What is the color of the person's skin in the previous image?,,2022-03-31_11h01.03.324,Representative Color,2021.2.3,MacIntel,60.0024001,3238,,,,,,
,,,,,,,,-0.043298611,-0.161644965,1,0,0,2.1822,seventhChoice,6,"0.79859, 0.58507, 0.48676",2,0,18,18,4,1,resources/t4Model-B.png,"0.73725, 0.54118, 0.45098","0.79859, 0.58507, 0.48676","0.72531, 0.40323, 0.30464","0.71373, 0.40784, 0.36078","0.8, 0.48235, 0.4","0.68235, 0.44314, 0.33333","0.64706, 0.45882, 0.36471","0.71765, 0.49804, 0.41176",What is the color of the person's skin in the previous image?,,2022-03-31_11h01.03.324,Representative Color,2021.2.3,MacIntel,60.0024001,3238,,,,,,
,,,,,,,,0.167465278,-0.072361111,1,0,0,3.5148,sixthChoice,5,"0.48425, 0.24604, 0.13103",2,0,19,19,14,1,resources/t4Model-yl.png,"0.43529, 0.22353, 0.12157","0.48425, 0.24604, 0.13103","0.74365, 0.40389, 0.19507","0.56078, 0.26667, 0.1451","0.35294, 0.16078, 0.070588","0.6, 0.35294, 0.22353","0.55294, 0.31373, 0.19216","0.30588, 0.12549, 0.043137",What is the color of the person's skin in the previous image?,,2022-03-31_11h01.03.324,Representative Color,2021.2.3,MacIntel,60.0024001,3238,,,,,,
,,,,,,,,,,,,,,,,,,,,,,,,,,,,,,,,,,2022-03-31_11h01.03.324,Representative Color,2021.2.3,MacIntel,60.0024001,3238,0,4,4,4,1,resources/trialFull.xlsx
