textboxDate.text,textboxElectronicSignature.text,textboxAge.text,textboxInitials.text,sliderViewConditions.response,sliderColorScientist.response,sliderCVD.response,sliderGenderIdentification.response,mouseResponse.x,mouseResponse.y,mouseResponse.leftButton,mouseResponse.midButton,mouseResponse.rightButton,mouseResponse.time,mouseResponse.clicked_name,mouseResponseLocation,choiceColor,choiceIndex,trialsStimuli.thisRepN,trialsStimuli.thisTrialN,trialsStimuli.thisN,trialsStimuli.thisIndex,trialsStimuli.ran,File_Name,color1,color2,color3,color4,color5,color6,color7,color8,Question,,date,expName,psychopyVersion,OS,frameRate,participant,trialsBlock.thisRepN,trialsBlock.thisTrialN,trialsBlock.thisN,trialsBlock.thisIndex,trialsBlock.ran,cond_file
04/06/22,Esha Shah,19,ES,2,2,2,1,0.019200439,0.139410807,1,0,0,4.6321,secondChoice,1,"0.53942, 0.56976, 0.20711",3,0,0,0,1,1,resources/test_tomato_green.png,"0.50196, 0.52941, 0.19608","0.57255, 0.58431, 0.12549","0.53942, 0.56976, 0.20711","0.6093, 0.62259, 0.12696","0.68627, 0.71373, 0.26667","0.4549, 0.49412, 0.11765","0.61961, 0.64314, 0.26667","0.37647, 0.41569, 0.12941",What is the color of the previous image?,,2022-04-06_09h28.43.257,Representative Color,2021.2.3,MacIntel,60.0024001,3250,,,,,,
,,,,,,,,0.133275011,0.045178223,1,0,0,4.5155,fourthChoice,3,"0.84314, 0.21961, 0.10196",2,0,1,1,3,1,resources/test_tomato_red.png,"0.80784, 0.27451, 0.18431","0.84314, 0.21961, 0.10196","0.86089, 0.28874, 0.19361","0.88235, 0.33333, 0.21176","0.74118, 0.22745, 0.16863","0.79608, 0.21569, 0.12941","0.77439, 0.25104, 0.17647","0.85235, 0.25555, 0.14958",What is the color of the tomato in the previous image?,,2022-04-06_09h28.43.257,Representative Color,2021.2.3,MacIntel,60.0024001,3250,,,,,,
,,,,,,,,0.054973958,0.145001051,1,0,0,2.8982,secondChoice,1,"0.44887, 0.066156, 0.074042",3,0,2,2,0,1,resources/test_wine.png,"0.40784, 0.070588, 0.070588","0.6, 0.043137, 0.035294","0.44887, 0.066156, 0.074042","0.49412, 0.090196, 0.062745","0.53725, 0.011765, 0.0078431","0.30196, 0.066667, 0.062745","0.35427, 0.069613, 0.067232","0.41756, 0.054997, 0.039926",What is the color of the previous image?,,2022-04-06_09h28.43.257,Representative Color,2021.2.3,MacIntel,60.0024001,3250,,,,,,
,,,,,,,,0.165493978,-0.062646857,1,0,0,1.5162,sixthChoice,5,"0.2415, 0.43907, 0.74504",5,0,3,3,2,1,resources/test_sky.png,"0.26275, 0.46667, 0.76863","0.2, 0.35686, 0.6902","0.27689, 0.50341, 0.83205","0.21961, 0.41176, 0.72157","0.2415, 0.43907, 0.74504","0.21025, 0.38424, 0.70588","0.35291, 0.58434, 0.85098","0.42745, 0.60784, 0.84314",What is the color of the previous image?,,2022-04-06_09h28.43.257,Representative Color,2021.2.3,MacIntel,60.0024001,3250,,,,,,
,,,,,,,,,,,,,,,,,,,,,,,,,,,,,,,,,,2022-04-06_09h28.43.257,Representative Color,2021.2.3,MacIntel,60.0024001,3250,0,0,0,0,1,resources/training.xlsx
,,,,,,,,0.075576375,-0.132489421,1,0,0,4.4984,eighthChoice,7,"0.61176, 0.34902, 0.18431",5,0,0,0,7,1,resources/t1Model-LC.png,"0.73725, 0.52941, 0.38431","0.79679, 0.57109, 0.41322","0.66488, 0.37758, 0.19682","0.58431, 0.32157, 0.18431","0.61176, 0.34902, 0.18431","0.68627, 0.47059, 0.32941","0.81569, 0.61176, 0.47843","0.63529, 0.42353, 0.27451",What is the color of the previous image?,,2022-04-06_09h28.43.257,Representative Color,2021.2.3,MacIntel,60.0024001,3250,,,,,,
,,,,,,,,0.1782999,-0.061536594,1,0,0,1.2153,sixthChoice,5,"0.72941, 0.36471, 0.19608",7,0,1,1,16,1,resources/t1mysteryLightOr_hdrOff.png,"0.81569, 0.43922, 0.22353","0.8714, 0.46756, 0.23566","0.91794, 0.40919, 0.093393","0.77255, 0.29804, 0.07451","0.9098, 0.55294, 0.30196","0.88627, 0.50196, 0.23922","0.72941, 0.36471, 0.19608","0.81569, 0.36863, 0.13333",What is the color of the previous image?,,2022-04-06_09h28.43.257,Representative Color,2021.2.3,MacIntel,60.0024001,3250,,,,,,
,,,,,,,,-0.035591838,0.18603658,1,0,0,2.2997,firstChoice,0,"0.31765, 0.15686, 0.090196",1,0,2,2,9,1,resources/t1Model-O.png,"0.31765, 0.15686, 0.090196","0.36342, 0.17598, 0.098248","0.55928, 0.25965, 0.13367","0.38431, 0.14902, 0.047059","0.22745, 0.098039, 0.05098","0.27161, 0.12707, 0.072951","0.41066, 0.19954, 0.10607","0.30444, 0.12352, 0.051246",What is the color of the previous image?,,2022-04-06_09h28.43.257,Representative Color,2021.2.3,MacIntel,60.0024001,3250,,,,,,
,,,,,,,,-0.184357639,-0.061892565,1,0,0,1.1319,fifthChoice,4,"0.72157, 0.47059, 0.33333",5,0,3,3,3,1,resources/t1Model-A.png,"0.60784, 0.39216, 0.26667","0.59216, 0.31765, 0.21569","0.66468, 0.4273, 0.28886","0.64755, 0.3451, 0.23286","0.72157, 0.47059, 0.33333","0.42353, 0.18824, 0.094118","0.50588, 0.29804, 0.19608","0.56078, 0.3451, 0.23529",What is the color of the previous image?,,2022-04-06_09h28.43.257,Representative Color,2021.2.3,MacIntel,60.0024001,3250,,,,,,
,,,,,,,,-0.040219659,-0.175498318,1,0,0,1.5323,seventhChoice,6,"0.41961, 0.20784, 0.094118",8,0,4,4,6,1,resources/t1Model-L.png,"0.52549, 0.2902, 0.16471","0.61569, 0.30588, 0.18039","0.57757, 0.31686, 0.1774","0.66902, 0.33001, 0.19272","0.47843, 0.25098, 0.13333","0.65882, 0.4, 0.25882","0.61176, 0.36078, 0.23137","0.41961, 0.20784, 0.094118",What is the color of the previous image?,,2022-04-06_09h28.43.257,Representative Color,2021.2.3,MacIntel,60.0024001,3250,,,,,,
,,,,,,,,-0.039025608,0.143124661,1,0,0,1.9653,firstChoice,0,"0.68985, 0.4335, 0.3243",4,0,5,5,8,1,resources/t1Model-M.png,"0.72549, 0.51373, 0.4","0.65098, 0.35294, 0.25098","0.78605, 0.55541, 0.43138","0.68985, 0.4335, 0.3243","0.6843, 0.46832, 0.35448","0.71971, 0.45365, 0.33937","0.73744, 0.47932, 0.37149","0.71412, 0.48874, 0.36979",What is the color of the previous image?,,2022-04-06_09h28.43.257,Representative Color,2021.2.3,MacIntel,60.0024001,3250,,,,,,
,,,,,,,,0.192875434,-0.073392741,1,0,0,1.4496,sixthChoice,5,"0.6, 0.58039, 0.4549",1,0,6,6,0,1,resources/t1DSC_0016.png,"0.6, 0.58039, 0.4549","0.6564, 0.64356, 0.5619","0.65167, 0.63033, 0.49287","0.60392, 0.59216, 0.50196","0.60392, 0.60392, 0.55686","0.62839, 0.6118, 0.50808","0.62574, 0.60526, 0.47382","0.60418, 0.59802, 0.5294",What is the color of the previous image?,,2022-04-06_09h28.43.257,Representative Color,2021.2.3,MacIntel,60.0024001,3250,,,,,,
,,,,,,,,-0.15781901,-0.045296631,1,0,0,0.833,fifthChoice,4,"0.30588, 0.41569, 0.18824",1,0,7,7,19,1,resources/t1zgrass.png,"0.30588, 0.41569, 0.18824","0.36341, 0.42546, 0.21823","0.33318, 0.45547, 0.20282","0.32157, 0.38039, 0.19216","0.27231, 0.37211, 0.15269","0.31422, 0.39807, 0.19031","0.34895, 0.44055, 0.21071","0.28046, 0.35484, 0.15506",What is the color of the previous image?,,2022-04-06_09h28.43.257,Representative Color,2021.2.3,MacIntel,60.0024001,3250,,,,,,
,,,,,,,,0.045320435,-0.209244792,1,0,0,0.7157,eighthChoice,7,"0.54902, 0.27843, 0.15686",2,0,8,8,11,1,resources/t1Model-R.png,"0.56863, 0.34902, 0.22353","0.54902, 0.27843, 0.15686","0.62375, 0.38114, 0.24213","0.60078, 0.30229, 0.16803","0.48235, 0.24314, 0.13333","0.65098, 0.41176, 0.28235","0.49412, 0.28627, 0.16471","0.54118, 0.31373, 0.19216",What is the color of the previous image?,,2022-04-06_09h28.43.257,Representative Color,2021.2.3,MacIntel,60.0024001,3250,,,,,,
,,,,,,,,0.053722602,-0.196762356,1,0,0,0.8649,eighthChoice,7,"0.79608, 0.58039, 0.45098",7,0,9,9,10,1,resources/t1Model-Ol.png,"0.69412, 0.47451, 0.35294","0.7537, 0.51393, 0.381","0.75045, 0.43076, 0.25995","0.56863, 0.2902, 0.18039","0.52941, 0.28235, 0.15294","0.69412, 0.4, 0.24314","0.79608, 0.58039, 0.45098","0.58431, 0.37255, 0.24706",What is the color of the previous image?,,2022-04-06_09h28.43.257,Representative Color,2021.2.3,MacIntel,60.0024001,3250,,,,,,
,,,,,,,,-0.032102593,-0.177279731,1,0,0,0.6166,seventhChoice,6,"0.50889, 0.63012, 0.83447",7,0,10,10,18,1,resources/t1sky.png,"0.38039, 0.50588, 0.72941","0.60278, 0.71367, 0.87522","0.41001, 0.54883, 0.79353","0.54118, 0.65098, 0.81961","0.48627, 0.6, 0.78824","0.39516, 0.52728, 0.76134","0.50889, 0.63012, 0.83447","0.4494, 0.57426, 0.79097",What is the color of the previous image?,,2022-04-06_09h28.43.257,Representative Color,2021.2.3,MacIntel,60.0024001,3250,,,,,,
,,,,,,,,-0.152421536,-0.039255812,1,0,0,0.7497,fifthChoice,4,"0.58137, 0.34036, 0.18379",8,0,11,11,13,1,resources/t1Model-ll.png,"0.59608, 0.36863, 0.23137","0.66275, 0.4, 0.21961","0.71741, 0.4315, 0.23453","0.65882, 0.43137, 0.29412","0.62936, 0.38426, 0.22577","0.54887, 0.3251, 0.1898","0.68099, 0.43522, 0.27061","0.58137, 0.34036, 0.18379",What is the color of the previous image?,,2022-04-06_09h28.43.257,Representative Color,2021.2.3,MacIntel,60.0024001,3250,,,,,,
,,,,,,,,0.080188395,-0.158051554,1,0,0,1.1657,eighthChoice,7,"0.4549, 0.23137, 0.12157",8,0,12,12,5,1,resources/t1Model-J.png,"0.74118, 0.41961, 0.23529","0.52414, 0.27049, 0.13884","0.79714, 0.44966, 0.25005","0.63529, 0.38824, 0.21569","0.70588, 0.43922, 0.2549","0.64314, 0.33725, 0.18431","0.56863, 0.32157, 0.19216","0.4549, 0.23137, 0.12157",What is the color of the previous image?,,2022-04-06_09h28.43.257,Representative Color,2021.2.3,MacIntel,60.0024001,3250,,,,,,
,,,,,,,,0.056922879,-0.182133789,1,0,0,0.9338,eighthChoice,7,"0.68235, 0.44314, 0.33333",6,0,13,13,4,1,resources/t1Model-B.png,"0.73725, 0.54118, 0.45098","0.79859, 0.58507, 0.48676","0.72531, 0.40323, 0.30464","0.71373, 0.40784, 0.36078","0.8, 0.48235, 0.4","0.68235, 0.44314, 0.33333","0.64706, 0.45882, 0.36471","0.71765, 0.49804, 0.41176",What is the color of the previous image?,,2022-04-06_09h28.43.257,Representative Color,2021.2.3,MacIntel,60.0024001,3250,,,,,,
,,,,,,,,0.186896905,0.024219937,1,0,0,1.0494,fourthChoice,3,"0.35294, 0.47451, 0.15294",1,0,14,14,17,1,resources/t1zpeppers.png,"0.35294, 0.47451, 0.15294","0.48235, 0.63529, 0.13725","0.37942, 0.51262, 0.16068","0.5104, 0.6743, 0.13948","0.41176, 0.59216, 0.11373","0.417, 0.55383, 0.14817","0.38255, 0.53277, 0.1372","0.44713, 0.61369, 0.1255",What is the color of the previous image?,,2022-04-06_09h28.43.257,Representative Color,2021.2.3,MacIntel,60.0024001,3250,,,,,,
,,,,,,,,0.085298326,-0.153022257,1,0,0,0.9981,eighthChoice,7,"0.68235, 0.57255, 0.20784",1,0,15,15,15,1,resources/t1green22days1_hdrOff.png,"0.68235, 0.57255, 0.20784","0.72549, 0.62353, 0.15686","0.76987, 0.66176, 0.16087","0.82745, 0.62745, 0.21569","0.70588, 0.53725, 0.12549","0.7451, 0.66275, 0.27451","0.60784, 0.52941, 0.18824","0.65098, 0.51373, 0.18824",What is the color of the previous image?,,2022-04-06_09h28.43.257,Representative Color,2021.2.3,MacIntel,60.0024001,3250,,,,,,
,,,,,,,,-0.05694892,-0.169432237,1,0,0,1.0497,seventhChoice,6,"0.59216, 0.29804, 0.20784",5,0,16,16,12,1,resources/t1Model-Y.png,"0.72941, 0.52157, 0.4","0.78972, 0.56355, 0.43105","0.64714, 0.32317, 0.22415","0.62353, 0.34902, 0.22353","0.59216, 0.29804, 0.20784","0.6902, 0.47843, 0.36471","0.80392, 0.60392, 0.49412","0.60784, 0.39216, 0.26275",What is the color of the previous image?,,2022-04-06_09h28.43.257,Representative Color,2021.2.3,MacIntel,60.0024001,3250,,,,,,
,,,,,,,,0.051647407,-0.198144803,1,0,0,0.999,eighthChoice,7,"0.21431, 0.034629, 0.057098",2,0,17,17,2,1,resources/t1DSC_0025.png,"0.39608, 0.058824, 0.070588","0.21431, 0.034629, 0.057098","0.43656, 0.051112, 0.07439","0.51373, 0.35294, 0.40784","0.21961, 0.086275, 0.12549","0.33333, 0.019608, 0.031373","0.36078, 0.26667, 0.32157","0.48235, 0.22745, 0.26275",What is the color of the previous image?,,2022-04-06_09h28.43.257,Representative Color,2021.2.3,MacIntel,60.0024001,3250,,,,,,
,,,,,,,,-0.144983114,-0.079493273,1,0,0,1.5473,fifthChoice,4,"0.48425, 0.24604, 0.13103",2,0,18,18,14,1,resources/t1Model-yl.png,"0.43529, 0.22353, 0.12157","0.48425, 0.24604, 0.13103","0.74365, 0.40389, 0.19507","0.56078, 0.26667, 0.1451","0.35294, 0.16078, 0.070588","0.6, 0.35294, 0.22353","0.55294, 0.31373, 0.19216","0.30588, 0.12549, 0.043137",What is the color of the previous image?,,2022-04-06_09h28.43.257,Representative Color,2021.2.3,MacIntel,60.0024001,3250,,,,,,
,,,,,,,,0.147670898,0.036520284,1,0,0,0.7832,fourthChoice,3,"0.34118, 0.023529, 0.05098",2,0,19,19,1,1,resources/t1DSC_0021.png,"0.16863, 0.027451, 0.035294","0.34118, 0.023529, 0.05098","0.37836, 0.0080068, 0.055199","0.37255, 0.12157, 0.18431","0.34902, 0.043137, 0.094118","0.41569, 0.23529, 0.29804","0.21569, 0.0078431, 0.019608","0.44314, 0.16863, 0.21961",What is the color of the previous image?,,2022-04-06_09h28.43.257,Representative Color,2021.2.3,MacIntel,60.0024001,3250,,,,,,
,,,,,,,,,,,,,,,,,,,,,,,,,,,,,,,,,,2022-04-06_09h28.43.257,Representative Color,2021.2.3,MacIntel,60.0024001,3250,0,1,1,1,1,resources/trialScramble.xlsx
,,,,,,,,0.149071452,0.054285889,1,0,0,0.7491,fourthChoice,3,"0.62839, 0.6118, 0.50808",6,0,0,0,0,1,resources/t2DSC_0016.png,"0.6, 0.58039, 0.4549","0.6564, 0.64356, 0.5619","0.65167, 0.63033, 0.49287","0.60392, 0.59216, 0.50196","0.60392, 0.60392, 0.55686","0.62839, 0.6118, 0.50808","0.62574, 0.60526, 0.47382","0.60418, 0.59802, 0.5294",What is the color of the previous image?,,2022-04-06_09h28.43.257,Representative Color,2021.2.3,MacIntel,60.0024001,3250,,,,,,
,,,,,,,,0.189260254,-0.083984782,1,0,0,0.8821,sixthChoice,5,"0.16863, 0.027451, 0.035294",1,0,1,1,1,1,resources/t2DSC_0021.png,"0.16863, 0.027451, 0.035294","0.34118, 0.023529, 0.05098","0.37836, 0.0080068, 0.055199","0.37255, 0.12157, 0.18431","0.34902, 0.043137, 0.094118","0.41569, 0.23529, 0.29804","0.21569, 0.0078431, 0.019608","0.44314, 0.16863, 0.21961",What is the color of the previous image?,,2022-04-06_09h28.43.257,Representative Color,2021.2.3,MacIntel,60.0024001,3250,,,,,,
,,,,,,,,-0.164627618,0.061339383,1,0,0,0.7001,thirdChoice,2,"0.48627, 0.6, 0.78824",5,0,2,2,18,1,resources/t2sky.png,"0.38039, 0.50588, 0.72941","0.60278, 0.71367, 0.87522","0.41001, 0.54883, 0.79353","0.54118, 0.65098, 0.81961","0.48627, 0.6, 0.78824","0.39516, 0.52728, 0.76134","0.50889, 0.63012, 0.83447","0.4494, 0.57426, 0.79097",What is the color of the previous image?,,2022-04-06_09h28.43.257,Representative Color,2021.2.3,MacIntel,60.0024001,3250,,,,,,
,,,,,,,,-0.209812215,-0.105563829,1,0,0,0.9835,fifthChoice,4,"0.35294, 0.47451, 0.15294",1,0,3,3,17,1,resources/t2zpeppers.png,"0.35294, 0.47451, 0.15294","0.48235, 0.63529, 0.13725","0.37942, 0.51262, 0.16068","0.5104, 0.6743, 0.13948","0.41176, 0.59216, 0.11373","0.417, 0.55383, 0.14817","0.38255, 0.53277, 0.1372","0.44713, 0.61369, 0.1255",What is the color of the previous image?,,2022-04-06_09h28.43.257,Representative Color,2021.2.3,MacIntel,60.0024001,3250,,,,,,
,,,,,,,,0.04637207,-0.205829197,1,0,0,0.833,eighthChoice,7,"0.28046, 0.35484, 0.15506",8,0,4,4,19,1,resources/t2zgrass.png,"0.30588, 0.41569, 0.18824","0.36341, 0.42546, 0.21823","0.33318, 0.45547, 0.20282","0.32157, 0.38039, 0.19216","0.27231, 0.37211, 0.15269","0.31422, 0.39807, 0.19031","0.34895, 0.44055, 0.21071","0.28046, 0.35484, 0.15506",What is the color of the previous image?,,2022-04-06_09h28.43.257,Representative Color,2021.2.3,MacIntel,60.0024001,3250,,,,,,
,,,,,,,,0.0244654,0.155055474,1,0,0,1.1819,secondChoice,1,"0.63529, 0.42353, 0.27451",8,0,5,5,7,1,resources/t2Model-LC.png,"0.73725, 0.52941, 0.38431","0.79679, 0.57109, 0.41322","0.66488, 0.37758, 0.19682","0.58431, 0.32157, 0.18431","0.61176, 0.34902, 0.18431","0.68627, 0.47059, 0.32941","0.81569, 0.61176, 0.47843","0.63529, 0.42353, 0.27451",What is the color of the previous image?,,2022-04-06_09h28.43.257,Representative Color,2021.2.3,MacIntel,60.0024001,3250,,,,,,
,,,,,,,,0.057882487,0.175370416,1,0,0,0.9144,secondChoice,1,"0.79859, 0.58507, 0.48676",2,0,6,6,4,1,resources/t2Model-B.png,"0.73725, 0.54118, 0.45098","0.79859, 0.58507, 0.48676","0.72531, 0.40323, 0.30464","0.71373, 0.40784, 0.36078","0.8, 0.48235, 0.4","0.68235, 0.44314, 0.33333","0.64706, 0.45882, 0.36471","0.71765, 0.49804, 0.41176",What is the color of the previous image?,,2022-04-06_09h28.43.257,Representative Color,2021.2.3,MacIntel,60.0024001,3250,,,,,,
,,,,,,,,-0.145324571,0.087659573,1,0,0,0.8659,thirdChoice,2,"0.60784, 0.52941, 0.18824",7,0,7,7,15,1,resources/t2green22days1_hdrOff.png,"0.68235, 0.57255, 0.20784","0.72549, 0.62353, 0.15686","0.76987, 0.66176, 0.16087","0.82745, 0.62745, 0.21569","0.70588, 0.53725, 0.12549","0.7451, 0.66275, 0.27451","0.60784, 0.52941, 0.18824","0.65098, 0.51373, 0.18824",What is the color of the previous image?,,2022-04-06_09h28.43.257,Representative Color,2021.2.3,MacIntel,60.0024001,3250,,,,,,
,,,,,,,,-0.100665758,-0.222492133,1,0,0,0.866,seventhChoice,6,"0.48235, 0.24314, 0.13333",5,0,8,8,11,1,resources/t2Model-R.png,"0.56863, 0.34902, 0.22353","0.54902, 0.27843, 0.15686","0.62375, 0.38114, 0.24213","0.60078, 0.30229, 0.16803","0.48235, 0.24314, 0.13333","0.65098, 0.41176, 0.28235","0.49412, 0.28627, 0.16471","0.54118, 0.31373, 0.19216",What is the color of the previous image?,,2022-04-06_09h28.43.257,Representative Color,2021.2.3,MacIntel,60.0024001,3250,,,,,,
,,,,,,,,0.179415351,-0.07880561,1,0,0,1.2147,sixthChoice,5,"0.65882, 0.4, 0.25882",6,0,9,9,6,1,resources/t2Model-L.png,"0.52549, 0.2902, 0.16471","0.61569, 0.30588, 0.18039","0.57757, 0.31686, 0.1774","0.66902, 0.33001, 0.19272","0.47843, 0.25098, 0.13333","0.65882, 0.4, 0.25882","0.61176, 0.36078, 0.23137","0.41961, 0.20784, 0.094118",What is the color of the previous image?,,2022-04-06_09h28.43.257,Representative Color,2021.2.3,MacIntel,60.0024001,3250,,,,,,
,,,,,,,,0.036326633,-0.184118381,1,0,0,1.2324,eighthChoice,7,"0.7537, 0.51393, 0.381",2,0,10,10,10,1,resources/t2Model-Ol.png,"0.69412, 0.47451, 0.35294","0.7537, 0.51393, 0.381","0.75045, 0.43076, 0.25995","0.56863, 0.2902, 0.18039","0.52941, 0.28235, 0.15294","0.69412, 0.4, 0.24314","0.79608, 0.58039, 0.45098","0.58431, 0.37255, 0.24706",What is the color of the previous image?,,2022-04-06_09h28.43.257,Representative Color,2021.2.3,MacIntel,60.0024001,3250,,,,,,
,,,,,,,,-0.136507975,-0.078310411,1,0,0,1.0664,fifthChoice,4,"0.58137, 0.34036, 0.18379",8,0,11,11,13,1,resources/t2Model-ll.png,"0.59608, 0.36863, 0.23137","0.66275, 0.4, 0.21961","0.71741, 0.4315, 0.23453","0.65882, 0.43137, 0.29412","0.62936, 0.38426, 0.22577","0.54887, 0.3251, 0.1898","0.68099, 0.43522, 0.27061","0.58137, 0.34036, 0.18379",What is the color of the previous image?,,2022-04-06_09h28.43.257,Representative Color,2021.2.3,MacIntel,60.0024001,3250,,,,,,
,,,,,,,,0.19233412,0.026030341,1,0,0,0.8832,fourthChoice,3,"0.78972, 0.56355, 0.43105",2,0,12,12,12,1,resources/t2Model-Y.png,"0.72941, 0.52157, 0.4","0.78972, 0.56355, 0.43105","0.64714, 0.32317, 0.22415","0.62353, 0.34902, 0.22353","0.59216, 0.29804, 0.20784","0.6902, 0.47843, 0.36471","0.80392, 0.60392, 0.49412","0.60784, 0.39216, 0.26275",What is the color of the previous image?,,2022-04-06_09h28.43.257,Representative Color,2021.2.3,MacIntel,60.0024001,3250,,,,,,
,,,,,,,,0.195245226,-0.030131904,1,0,0,0.9324,sixthChoice,5,"0.43529, 0.22353, 0.12157",1,0,13,13,14,1,resources/t2Model-yl.png,"0.43529, 0.22353, 0.12157","0.48425, 0.24604, 0.13103","0.74365, 0.40389, 0.19507","0.56078, 0.26667, 0.1451","0.35294, 0.16078, 0.070588","0.6, 0.35294, 0.22353","0.55294, 0.31373, 0.19216","0.30588, 0.12549, 0.043137",What is the color of the previous image?,,2022-04-06_09h28.43.257,Representative Color,2021.2.3,MacIntel,60.0024001,3250,,,,,,
,,,,,,,,0.017112223,0.142118462,1,0,0,1.8992,secondChoice,1,"0.78605, 0.55541, 0.43138",3,0,14,14,8,1,resources/t2Model-M.png,"0.72549, 0.51373, 0.4","0.65098, 0.35294, 0.25098","0.78605, 0.55541, 0.43138","0.68985, 0.4335, 0.3243","0.6843, 0.46832, 0.35448","0.71971, 0.45365, 0.33937","0.73744, 0.47932, 0.37149","0.71412, 0.48874, 0.36979",What is the color of the previous image?,,2022-04-06_09h28.43.257,Representative Color,2021.2.3,MacIntel,60.0024001,3250,,,,,,
,,,,,,,,-0.04192098,-0.150153876,1,0,0,1.3145,seventhChoice,6,"0.91794, 0.40919, 0.093393",3,0,15,15,16,1,resources/t2mysteryLightOr_hdrOff.png,"0.81569, 0.43922, 0.22353","0.8714, 0.46756, 0.23566","0.91794, 0.40919, 0.093393","0.77255, 0.29804, 0.07451","0.9098, 0.55294, 0.30196","0.88627, 0.50196, 0.23922","0.72941, 0.36471, 0.19608","0.81569, 0.36863, 0.13333",What is the color of the previous image?,,2022-04-06_09h28.43.257,Representative Color,2021.2.3,MacIntel,60.0024001,3250,,,,,,
,,,,,,,,-0.06001865,-0.18610772,1,0,0,1.3477,seventhChoice,6,"0.30444, 0.12352, 0.051246",8,0,16,16,9,1,resources/t2Model-O.png,"0.31765, 0.15686, 0.090196","0.36342, 0.17598, 0.098248","0.55928, 0.25965, 0.13367","0.38431, 0.14902, 0.047059","0.22745, 0.098039, 0.05098","0.27161, 0.12707, 0.072951","0.41066, 0.19954, 0.10607","0.30444, 0.12352, 0.051246",What is the color of the previous image?,,2022-04-06_09h28.43.257,Representative Color,2021.2.3,MacIntel,60.0024001,3250,,,,,,
,,,,,,,,-0.165527547,-0.060903524,1,0,0,1.4656,fifthChoice,4,"0.33333, 0.019608, 0.031373",6,0,17,17,2,1,resources/t2DSC_0025.png,"0.39608, 0.058824, 0.070588","0.21431, 0.034629, 0.057098","0.43656, 0.051112, 0.07439","0.51373, 0.35294, 0.40784","0.21961, 0.086275, 0.12549","0.33333, 0.019608, 0.031373","0.36078, 0.26667, 0.32157","0.48235, 0.22745, 0.26275",What is the color of the previous image?,,2022-04-06_09h28.43.257,Representative Color,2021.2.3,MacIntel,60.0024001,3250,,,,,,
,,,,,,,,-0.207961629,-0.088816596,1,0,0,1.4321,fifthChoice,4,"0.72157, 0.47059, 0.33333",5,0,18,18,3,1,resources/t2Model-A.png,"0.60784, 0.39216, 0.26667","0.59216, 0.31765, 0.21569","0.66468, 0.4273, 0.28886","0.64755, 0.3451, 0.23286","0.72157, 0.47059, 0.33333","0.42353, 0.18824, 0.094118","0.50588, 0.29804, 0.19608","0.56078, 0.3451, 0.23529",What is the color of the previous image?,,2022-04-06_09h28.43.257,Representative Color,2021.2.3,MacIntel,60.0024001,3250,,,,,,
,,,,,,,,0.055218506,0.15741428,1,0,0,1.0485,secondChoice,1,"0.4549, 0.23137, 0.12157",8,0,19,19,5,1,resources/t2Model-J.png,"0.74118, 0.41961, 0.23529","0.52414, 0.27049, 0.13884","0.79714, 0.44966, 0.25005","0.63529, 0.38824, 0.21569","0.70588, 0.43922, 0.2549","0.64314, 0.33725, 0.18431","0.56863, 0.32157, 0.19216","0.4549, 0.23137, 0.12157",What is the color of the previous image?,,2022-04-06_09h28.43.257,Representative Color,2021.2.3,MacIntel,60.0024001,3250,,,,,,
,,,,,,,,,,,,,,,,,,,,,,,,,,,,,,,,,,2022-04-06_09h28.43.257,Representative Color,2021.2.3,MacIntel,60.0024001,3250,0,2,2,2,1,resources/trialSixteen.xlsx
,,,,,,,,0.163526272,-0.086864556,1,0,0,0.7812,sixthChoice,5,"0.30588, 0.41569, 0.18824",1,0,0,0,19,1,resources/t3zgrass.png,"0.30588, 0.41569, 0.18824","0.36341, 0.42546, 0.21823","0.33318, 0.45547, 0.20282","0.32157, 0.38039, 0.19216","0.27231, 0.37211, 0.15269","0.31422, 0.39807, 0.19031","0.34895, 0.44055, 0.21071","0.28046, 0.35484, 0.15506",What is the color of the previous image?,,2022-04-06_09h28.43.257,Representative Color,2021.2.3,MacIntel,60.0024001,3250,,,,,,
,,,,,,,,0.158667874,-0.086030138,1,0,0,2.8996,sixthChoice,5,"0.27161, 0.12707, 0.072951",6,0,1,1,9,1,resources/t3Model-O.png,"0.31765, 0.15686, 0.090196","0.36342, 0.17598, 0.098248","0.55928, 0.25965, 0.13367","0.38431, 0.14902, 0.047059","0.22745, 0.098039, 0.05098","0.27161, 0.12707, 0.072951","0.41066, 0.19954, 0.10607","0.30444, 0.12352, 0.051246",What is the color of the previous image?,,2022-04-06_09h28.43.257,Representative Color,2021.2.3,MacIntel,60.0024001,3250,,,,,,
,,,,,,,,-0.057364231,0.169096273,1,0,0,2.0991,firstChoice,0,"0.65098, 0.41176, 0.28235",6,0,2,2,11,1,resources/t3Model-R.png,"0.56863, 0.34902, 0.22353","0.54902, 0.27843, 0.15686","0.62375, 0.38114, 0.24213","0.60078, 0.30229, 0.16803","0.48235, 0.24314, 0.13333","0.65098, 0.41176, 0.28235","0.49412, 0.28627, 0.16471","0.54118, 0.31373, 0.19216",What is the color of the previous image?,,2022-04-06_09h28.43.257,Representative Color,2021.2.3,MacIntel,60.0024001,3250,,,,,,
,,,,,,,,-0.049260729,0.192697211,1,0,0,0.9656,firstChoice,0,"0.79859, 0.58507, 0.48676",2,0,3,3,4,1,resources/t3Model-B.png,"0.73725, 0.54118, 0.45098","0.79859, 0.58507, 0.48676","0.72531, 0.40323, 0.30464","0.71373, 0.40784, 0.36078","0.8, 0.48235, 0.4","0.68235, 0.44314, 0.33333","0.64706, 0.45882, 0.36471","0.71765, 0.49804, 0.41176",What is the color of the previous image?,,2022-04-06_09h28.43.257,Representative Color,2021.2.3,MacIntel,60.0024001,3250,,,,,,
,,,,,,,,0.161644287,0.063563572,1,0,0,1.3321,fourthChoice,3,"0.21569, 0.0078431, 0.019608",7,0,4,4,1,1,resources/t3DSC_0021.png,"0.16863, 0.027451, 0.035294","0.34118, 0.023529, 0.05098","0.37836, 0.0080068, 0.055199","0.37255, 0.12157, 0.18431","0.34902, 0.043137, 0.094118","0.41569, 0.23529, 0.29804","0.21569, 0.0078431, 0.019608","0.44314, 0.16863, 0.21961",What is the color of the previous image?,,2022-04-06_09h28.43.257,Representative Color,2021.2.3,MacIntel,60.0024001,3250,,,,,,
,,,,,,,,0.049522502,0.166648899,1,0,0,0.9317,secondChoice,1,"0.69412, 0.47451, 0.35294",1,0,5,5,10,1,resources/t3Model-Ol.png,"0.69412, 0.47451, 0.35294","0.7537, 0.51393, 0.381","0.75045, 0.43076, 0.25995","0.56863, 0.2902, 0.18039","0.52941, 0.28235, 0.15294","0.69412, 0.4, 0.24314","0.79608, 0.58039, 0.45098","0.58431, 0.37255, 0.24706",What is the color of the previous image?,,2022-04-06_09h28.43.257,Representative Color,2021.2.3,MacIntel,60.0024001,3250,,,,,,
,,,,,,,,0.196172418,-0.074810791,1,0,0,1.982,sixthChoice,5,"0.4549, 0.23137, 0.12157",8,0,6,6,5,1,resources/t3Model-J.png,"0.74118, 0.41961, 0.23529","0.52414, 0.27049, 0.13884","0.79714, 0.44966, 0.25005","0.63529, 0.38824, 0.21569","0.70588, 0.43922, 0.2549","0.64314, 0.33725, 0.18431","0.56863, 0.32157, 0.19216","0.4549, 0.23137, 0.12157",What is the color of the previous image?,,2022-04-06_09h28.43.257,Representative Color,2021.2.3,MacIntel,60.0024001,3250,,,,,,
,,,,,,,,0.041773003,-0.173424276,1,0,0,2.2654,eighthChoice,7,"0.78972, 0.56355, 0.43105",2,0,7,7,12,1,resources/t3Model-Y.png,"0.72941, 0.52157, 0.4","0.78972, 0.56355, 0.43105","0.64714, 0.32317, 0.22415","0.62353, 0.34902, 0.22353","0.59216, 0.29804, 0.20784","0.6902, 0.47843, 0.36471","0.80392, 0.60392, 0.49412","0.60784, 0.39216, 0.26275",What is the color of the previous image?,,2022-04-06_09h28.43.257,Representative Color,2021.2.3,MacIntel,60.0024001,3250,,,,,,
,,,,,,,,-0.19921658,0.071562025,1,0,0,0.8306,thirdChoice,2,"0.66275, 0.4, 0.21961",2,0,8,8,13,1,resources/t3Model-ll.png,"0.59608, 0.36863, 0.23137","0.66275, 0.4, 0.21961","0.71741, 0.4315, 0.23453","0.65882, 0.43137, 0.29412","0.62936, 0.38426, 0.22577","0.54887, 0.3251, 0.1898","0.68099, 0.43522, 0.27061","0.58137, 0.34036, 0.18379",What is the color of the previous image?,,2022-04-06_09h28.43.257,Representative Color,2021.2.3,MacIntel,60.0024001,3250,,,,,,
,,,,,,,,-0.045069038,-0.169463298,1,0,0,1.2324,seventhChoice,6,"0.8714, 0.46756, 0.23566",2,0,9,9,16,1,resources/t3mysteryLightOr_hdrOff.png,"0.81569, 0.43922, 0.22353","0.8714, 0.46756, 0.23566","0.91794, 0.40919, 0.093393","0.77255, 0.29804, 0.07451","0.9098, 0.55294, 0.30196","0.88627, 0.50196, 0.23922","0.72941, 0.36471, 0.19608","0.81569, 0.36863, 0.13333",What is the color of the previous image?,,2022-04-06_09h28.43.257,Representative Color,2021.2.3,MacIntel,60.0024001,3250,,,,,,
,,,,,,,,-0.174433662,0.066062486,1,0,0,1.3318,thirdChoice,2,"0.65882, 0.4, 0.25882",6,0,10,10,6,1,resources/t3Model-L.png,"0.52549, 0.2902, 0.16471","0.61569, 0.30588, 0.18039","0.57757, 0.31686, 0.1774","0.66902, 0.33001, 0.19272","0.47843, 0.25098, 0.13333","0.65882, 0.4, 0.25882","0.61176, 0.36078, 0.23137","0.41961, 0.20784, 0.094118",What is the color of the previous image?,,2022-04-06_09h28.43.257,Representative Color,2021.2.3,MacIntel,60.0024001,3250,,,,,,
,,,,,,,,0.157231649,-0.067706367,1,0,0,1.166,sixthChoice,5,"0.43529, 0.22353, 0.12157",1,0,11,11,14,1,resources/t3Model-yl.png,"0.43529, 0.22353, 0.12157","0.48425, 0.24604, 0.13103","0.74365, 0.40389, 0.19507","0.56078, 0.26667, 0.1451","0.35294, 0.16078, 0.070588","0.6, 0.35294, 0.22353","0.55294, 0.31373, 0.19216","0.30588, 0.12549, 0.043137",What is the color of the previous image?,,2022-04-06_09h28.43.257,Representative Color,2021.2.3,MacIntel,60.0024001,3250,,,,,,
,,,,,,,,0.063397827,-0.157291938,1,0,0,0.6329,eighthChoice,7,"0.21961, 0.086275, 0.12549",5,0,12,12,2,1,resources/t3DSC_0025.png,"0.39608, 0.058824, 0.070588","0.21431, 0.034629, 0.057098","0.43656, 0.051112, 0.07439","0.51373, 0.35294, 0.40784","0.21961, 0.086275, 0.12549","0.33333, 0.019608, 0.031373","0.36078, 0.26667, 0.32157","0.48235, 0.22745, 0.26275",What is the color of the previous image?,,2022-04-06_09h28.43.257,Representative Color,2021.2.3,MacIntel,60.0024001,3250,,,,,,
,,,,,,,,-0.150713365,-0.071858521,1,0,0,1.2496,fifthChoice,4,"0.68235, 0.57255, 0.20784",1,0,13,13,15,1,resources/t3green22days1_hdrOff.png,"0.68235, 0.57255, 0.20784","0.72549, 0.62353, 0.15686","0.76987, 0.66176, 0.16087","0.82745, 0.62745, 0.21569","0.70588, 0.53725, 0.12549","0.7451, 0.66275, 0.27451","0.60784, 0.52941, 0.18824","0.65098, 0.51373, 0.18824",What is the color of the previous image?,,2022-04-06_09h28.43.257,Representative Color,2021.2.3,MacIntel,60.0024001,3250,,,,,,
,,,,,,,,-0.172115207,-0.044954461,1,0,0,1.8651,fifthChoice,4,"0.4494, 0.57426, 0.79097",8,0,14,14,18,1,resources/t3sky.png,"0.38039, 0.50588, 0.72941","0.60278, 0.71367, 0.87522","0.41001, 0.54883, 0.79353","0.54118, 0.65098, 0.81961","0.48627, 0.6, 0.78824","0.39516, 0.52728, 0.76134","0.50889, 0.63012, 0.83447","0.4494, 0.57426, 0.79097",What is the color of the previous image?,,2022-04-06_09h28.43.257,Representative Color,2021.2.3,MacIntel,60.0024001,3250,,,,,,
,,,,,,,,-0.162041083,-0.068904419,1,0,0,1.3981,fifthChoice,4,"0.65167, 0.63033, 0.49287",3,0,15,15,0,1,resources/t3DSC_0016.png,"0.6, 0.58039, 0.4549","0.6564, 0.64356, 0.5619","0.65167, 0.63033, 0.49287","0.60392, 0.59216, 0.50196","0.60392, 0.60392, 0.55686","0.62839, 0.6118, 0.50808","0.62574, 0.60526, 0.47382","0.60418, 0.59802, 0.5294",What is the color of the previous image?,,2022-04-06_09h28.43.257,Representative Color,2021.2.3,MacIntel,60.0024001,3250,,,,,,
,,,,,,,,-0.065044217,0.141843262,1,0,0,0.9656,firstChoice,0,"0.78605, 0.55541, 0.43138",3,0,16,16,8,1,resources/t3Model-M.png,"0.72549, 0.51373, 0.4","0.65098, 0.35294, 0.25098","0.78605, 0.55541, 0.43138","0.68985, 0.4335, 0.3243","0.6843, 0.46832, 0.35448","0.71971, 0.45365, 0.33937","0.73744, 0.47932, 0.37149","0.71412, 0.48874, 0.36979",What is the color of the previous image?,,2022-04-06_09h28.43.257,Representative Color,2021.2.3,MacIntel,60.0024001,3250,,,,,,
,,,,,,,,-0.05815328,0.138913574,1,0,0,2.9984,firstChoice,0,"0.66468, 0.4273, 0.28886",3,0,17,17,3,1,resources/t3Model-A.png,"0.60784, 0.39216, 0.26667","0.59216, 0.31765, 0.21569","0.66468, 0.4273, 0.28886","0.64755, 0.3451, 0.23286","0.72157, 0.47059, 0.33333","0.42353, 0.18824, 0.094118","0.50588, 0.29804, 0.19608","0.56078, 0.3451, 0.23529",What is the color of the previous image?,,2022-04-06_09h28.43.257,Representative Color,2021.2.3,MacIntel,60.0024001,3250,,,,,,
,,,,,,,,0.171931763,-0.075800442,1,0,0,1.1151,sixthChoice,5,"0.79679, 0.57109, 0.41322",2,0,18,18,7,1,resources/t3Model-LC.png,"0.73725, 0.52941, 0.38431","0.79679, 0.57109, 0.41322","0.66488, 0.37758, 0.19682","0.58431, 0.32157, 0.18431","0.61176, 0.34902, 0.18431","0.68627, 0.47059, 0.32941","0.81569, 0.61176, 0.47843","0.63529, 0.42353, 0.27451",What is the color of the previous image?,,2022-04-06_09h28.43.257,Representative Color,2021.2.3,MacIntel,60.0024001,3250,,,,,,
,,,,,,,,0.028264025,0.181338772,1,0,0,2.4983,secondChoice,1,"0.417, 0.55383, 0.14817",6,0,19,19,17,1,resources/t3zpeppers.png,"0.35294, 0.47451, 0.15294","0.48235, 0.63529, 0.13725","0.37942, 0.51262, 0.16068","0.5104, 0.6743, 0.13948","0.41176, 0.59216, 0.11373","0.417, 0.55383, 0.14817","0.38255, 0.53277, 0.1372","0.44713, 0.61369, 0.1255",What is the color of the previous image?,,2022-04-06_09h28.43.257,Representative Color,2021.2.3,MacIntel,60.0024001,3250,,,,,,
,,,,,,,,,,,,,,,,,,,,,,,,,,,,,,,,,,2022-04-06_09h28.43.257,Representative Color,2021.2.3,MacIntel,60.0024001,3250,0,3,3,3,1,resources/trialSixtyFour.xlsx
,,,,,,,,0.143661838,0.016150343,1,0,0,1.4476,fourthChoice,3,"0.72157, 0.47059, 0.33333",5,0,0,0,3,1,resources/t4Model-A.png,"0.60784, 0.39216, 0.26667","0.59216, 0.31765, 0.21569","0.66468, 0.4273, 0.28886","0.64755, 0.3451, 0.23286","0.72157, 0.47059, 0.33333","0.42353, 0.18824, 0.094118","0.50588, 0.29804, 0.19608","0.56078, 0.3451, 0.23529",What is the color of the person's skin in the previous image?,,2022-04-06_09h28.43.257,Representative Color,2021.2.3,MacIntel,60.0024001,3250,,,,,,
,,,,,,,,-0.022015584,-0.200566406,1,0,0,1.4131,seventhChoice,6,"0.33318, 0.45547, 0.20282",3,0,1,1,19,1,resources/t4zgrass.png,"0.30588, 0.41569, 0.18824","0.36341, 0.42546, 0.21823","0.33318, 0.45547, 0.20282","0.32157, 0.38039, 0.19216","0.27231, 0.37211, 0.15269","0.31422, 0.39807, 0.19031","0.34895, 0.44055, 0.21071","0.28046, 0.35484, 0.15506",What is the color of the grass in the previous image?,,2022-04-06_09h28.43.257,Representative Color,2021.2.3,MacIntel,60.0024001,3250,,,,,,
,,,,,,,,-0.183678521,-0.054832323,1,0,0,0.8472,fifthChoice,4,"0.65098, 0.41176, 0.28235",6,0,2,2,11,1,resources/t4Model-R.png,"0.56863, 0.34902, 0.22353","0.54902, 0.27843, 0.15686","0.62375, 0.38114, 0.24213","0.60078, 0.30229, 0.16803","0.48235, 0.24314, 0.13333","0.65098, 0.41176, 0.28235","0.49412, 0.28627, 0.16471","0.54118, 0.31373, 0.19216",What is the color of the person's skin in the previous image?,,2022-04-06_09h28.43.257,Representative Color,2021.2.3,MacIntel,60.0024001,3250,,,,,,
,,,,,,,,-0.141209039,0.077521905,1,0,0,1.3156,thirdChoice,2,"0.73725, 0.52941, 0.38431",1,0,3,3,7,1,resources/t4Model-LC.png,"0.73725, 0.52941, 0.38431","0.79679, 0.57109, 0.41322","0.66488, 0.37758, 0.19682","0.58431, 0.32157, 0.18431","0.61176, 0.34902, 0.18431","0.68627, 0.47059, 0.32941","0.81569, 0.61176, 0.47843","0.63529, 0.42353, 0.27451",What is the color of the person's skin in the previous image?,,2022-04-06_09h28.43.257,Representative Color,2021.2.3,MacIntel,60.0024001,3250,,,,,,
,,,,,,,,0.150914985,0.084146593,1,0,0,1.2821,fourthChoice,3,"0.79608, 0.58039, 0.45098",7,0,4,4,10,1,resources/t4Model-Ol.png,"0.69412, 0.47451, 0.35294","0.7537, 0.51393, 0.381","0.75045, 0.43076, 0.25995","0.56863, 0.2902, 0.18039","0.52941, 0.28235, 0.15294","0.69412, 0.4, 0.24314","0.79608, 0.58039, 0.45098","0.58431, 0.37255, 0.24706",What is the color of the person's skin in the previous image?,,2022-04-06_09h28.43.257,Representative Color,2021.2.3,MacIntel,60.0024001,3250,,,,,,
,,,,,,,,0.180532227,-0.055057237,1,0,0,0.8484,sixthChoice,5,"0.78972, 0.56355, 0.43105",2,0,5,5,12,1,resources/t4Model-Y.png,"0.72941, 0.52157, 0.4","0.78972, 0.56355, 0.43105","0.64714, 0.32317, 0.22415","0.62353, 0.34902, 0.22353","0.59216, 0.29804, 0.20784","0.6902, 0.47843, 0.36471","0.80392, 0.60392, 0.49412","0.60784, 0.39216, 0.26275",What is the color of the person's skin in the previous image?,,2022-04-06_09h28.43.257,Representative Color,2021.2.3,MacIntel,60.0024001,3250,,,,,,
,,,,,,,,0.064737956,-0.174357571,1,0,0,0.9814,eighthChoice,7,"0.7451, 0.66275, 0.27451",6,0,6,6,15,1,resources/t4green22days1_hdrOff.png,"0.68235, 0.57255, 0.20784","0.72549, 0.62353, 0.15686","0.76987, 0.66176, 0.16087","0.82745, 0.62745, 0.21569","0.70588, 0.53725, 0.12549","0.7451, 0.66275, 0.27451","0.60784, 0.52941, 0.18824","0.65098, 0.51373, 0.18824",What is the color of the tomato in the previous image?,,2022-04-06_09h28.43.257,Representative Color,2021.2.3,MacIntel,60.0024001,3250,,,,,,
,,,,,,,,-0.063316176,0.140219218,1,0,0,1.1321,firstChoice,0,"0.417, 0.55383, 0.14817",6,0,7,7,17,1,resources/t4zpeppers.png,"0.35294, 0.47451, 0.15294","0.48235, 0.63529, 0.13725","0.37942, 0.51262, 0.16068","0.5104, 0.6743, 0.13948","0.41176, 0.59216, 0.11373","0.417, 0.55383, 0.14817","0.38255, 0.53277, 0.1372","0.44713, 0.61369, 0.1255",What is the color of the peppers in the previous image?,,2022-04-06_09h28.43.257,Representative Color,2021.2.3,MacIntel,60.0024001,3250,,,,,,
,,,,,,,,0.149884711,0.033641086,1,0,0,1.1658,fourthChoice,3,"0.31765, 0.15686, 0.090196",1,0,8,8,9,1,resources/t4Model-O.png,"0.31765, 0.15686, 0.090196","0.36342, 0.17598, 0.098248","0.55928, 0.25965, 0.13367","0.38431, 0.14902, 0.047059","0.22745, 0.098039, 0.05098","0.27161, 0.12707, 0.072951","0.41066, 0.19954, 0.10607","0.30444, 0.12352, 0.051246",What is the color of the person's skin in the previous image?,,2022-04-06_09h28.43.257,Representative Color,2021.2.3,MacIntel,60.0024001,3250,,,,,,
,,,,,,,,0.04447564,-0.199611952,1,0,0,0.9834,eighthChoice,7,"0.52549, 0.2902, 0.16471",1,0,9,9,6,1,resources/t4Model-L.png,"0.52549, 0.2902, 0.16471","0.61569, 0.30588, 0.18039","0.57757, 0.31686, 0.1774","0.66902, 0.33001, 0.19272","0.47843, 0.25098, 0.13333","0.65882, 0.4, 0.25882","0.61176, 0.36078, 0.23137","0.41961, 0.20784, 0.094118",What is the color of the person's skin in the previous image?,,2022-04-06_09h28.43.257,Representative Color,2021.2.3,MacIntel,60.0024001,3250,,,,,,
,,,,,,,,-0.040580919,-0.193028225,1,0,0,0.9151,seventhChoice,6,"0.43656, 0.051112, 0.07439",3,0,10,10,2,1,resources/t4DSC_0025.png,"0.39608, 0.058824, 0.070588","0.21431, 0.034629, 0.057098","0.43656, 0.051112, 0.07439","0.51373, 0.35294, 0.40784","0.21961, 0.086275, 0.12549","0.33333, 0.019608, 0.031373","0.36078, 0.26667, 0.32157","0.48235, 0.22745, 0.26275",What is the color of the wine in the previous image?,,2022-04-06_09h28.43.257,Representative Color,2021.2.3,MacIntel,60.0024001,3250,,,,,,
,,,,,,,,-0.027524685,-0.177391629,1,0,0,1.0801,seventhChoice,6,"0.4549, 0.23137, 0.12157",8,0,11,11,5,1,resources/t4Model-J.png,"0.74118, 0.41961, 0.23529","0.52414, 0.27049, 0.13884","0.79714, 0.44966, 0.25005","0.63529, 0.38824, 0.21569","0.70588, 0.43922, 0.2549","0.64314, 0.33725, 0.18431","0.56863, 0.32157, 0.19216","0.4549, 0.23137, 0.12157",What is the color of the person's skin in the previous image?,,2022-04-06_09h28.43.257,Representative Color,2021.2.3,MacIntel,60.0024001,3250,,,,,,
,,,,,,,,-0.14606208,0.045538805,1,0,0,1.3831,thirdChoice,2,"0.48425, 0.24604, 0.13103",2,0,12,12,14,1,resources/t4Model-yl.png,"0.43529, 0.22353, 0.12157","0.48425, 0.24604, 0.13103","0.74365, 0.40389, 0.19507","0.56078, 0.26667, 0.1451","0.35294, 0.16078, 0.070588","0.6, 0.35294, 0.22353","0.55294, 0.31373, 0.19216","0.30588, 0.12549, 0.043137",What is the color of the person's skin in the previous image?,,2022-04-06_09h28.43.257,Representative Color,2021.2.3,MacIntel,60.0024001,3250,,,,,,
,,,,,,,,-0.154916857,0.045538805,1,0,0,0.9138,thirdChoice,2,"0.78605, 0.55541, 0.43138",3,0,13,13,8,1,resources/t4Model-M.png,"0.72549, 0.51373, 0.4","0.65098, 0.35294, 0.25098","0.78605, 0.55541, 0.43138","0.68985, 0.4335, 0.3243","0.6843, 0.46832, 0.35448","0.71971, 0.45365, 0.33937","0.73744, 0.47932, 0.37149","0.71412, 0.48874, 0.36979",What is the color of the person's skin in the previous image?,,2022-04-06_09h28.43.257,Representative Color,2021.2.3,MacIntel,60.0024001,3250,,,,,,
,,,,,,,,0.157274306,0.052405497,1,0,0,1.6642,fourthChoice,3,"0.62839, 0.6118, 0.50808",6,0,14,14,0,1,resources/t4DSC_0016.png,"0.6, 0.58039, 0.4549","0.6564, 0.64356, 0.5619","0.65167, 0.63033, 0.49287","0.60392, 0.59216, 0.50196","0.60392, 0.60392, 0.55686","0.62839, 0.6118, 0.50808","0.62574, 0.60526, 0.47382","0.60418, 0.59802, 0.5294",What is the color of the wine in the previous image?,,2022-04-06_09h28.43.257,Representative Color,2021.2.3,MacIntel,60.0024001,3250,,,,,,
,,,,,,,,0.076230333,0.130121155,1,0,0,0.7805,secondChoice,1,"0.79859, 0.58507, 0.48676",2,0,15,15,4,1,resources/t4Model-B.png,"0.73725, 0.54118, 0.45098","0.79859, 0.58507, 0.48676","0.72531, 0.40323, 0.30464","0.71373, 0.40784, 0.36078","0.8, 0.48235, 0.4","0.68235, 0.44314, 0.33333","0.64706, 0.45882, 0.36471","0.71765, 0.49804, 0.41176",What is the color of the person's skin in the previous image?,,2022-04-06_09h28.43.257,Representative Color,2021.2.3,MacIntel,60.0024001,3250,,,,,,
,,,,,,,,0.19765191,0.068884786,1,0,0,1.6985,fourthChoice,3,"0.65882, 0.43137, 0.29412",4,0,16,16,13,1,resources/t4Model-ll.png,"0.59608, 0.36863, 0.23137","0.66275, 0.4, 0.21961","0.71741, 0.4315, 0.23453","0.65882, 0.43137, 0.29412","0.62936, 0.38426, 0.22577","0.54887, 0.3251, 0.1898","0.68099, 0.43522, 0.27061","0.58137, 0.34036, 0.18379",What is the color of the person's skin in the previous image?,,2022-04-06_09h28.43.257,Representative Color,2021.2.3,MacIntel,60.0024001,3250,,,,,,
,,,,,,,,0.186418525,0.03659885,1,0,0,1.0472,fourthChoice,3,"0.34118, 0.023529, 0.05098",2,0,17,17,1,1,resources/t4DSC_0021.png,"0.16863, 0.027451, 0.035294","0.34118, 0.023529, 0.05098","0.37836, 0.0080068, 0.055199","0.37255, 0.12157, 0.18431","0.34902, 0.043137, 0.094118","0.41569, 0.23529, 0.29804","0.21569, 0.0078431, 0.019608","0.44314, 0.16863, 0.21961",What is the color of the wine in the previous image?,,2022-04-06_09h28.43.257,Representative Color,2021.2.3,MacIntel,60.0024001,3250,,,,,,
,,,,,,,,-0.065907457,-0.174903361,1,0,0,2.7139,seventhChoice,6,"0.60278, 0.71367, 0.87522",2,0,18,18,18,1,resources/t4sky.png,"0.38039, 0.50588, 0.72941","0.60278, 0.71367, 0.87522","0.41001, 0.54883, 0.79353","0.54118, 0.65098, 0.81961","0.48627, 0.6, 0.78824","0.39516, 0.52728, 0.76134","0.50889, 0.63012, 0.83447","0.4494, 0.57426, 0.79097",What is the color of the sky in the previous image?,,2022-04-06_09h28.43.257,Representative Color,2021.2.3,MacIntel,60.0024001,3250,,,,,,
,,,,,,,,0.099988336,0.163571235,1,0,0,1.3814,secondChoice,1,"0.8714, 0.46756, 0.23566",2,0,19,19,16,1,resources/t4mysteryLightOr_hdrOff.png,"0.81569, 0.43922, 0.22353","0.8714, 0.46756, 0.23566","0.91794, 0.40919, 0.093393","0.77255, 0.29804, 0.07451","0.9098, 0.55294, 0.30196","0.88627, 0.50196, 0.23922","0.72941, 0.36471, 0.19608","0.81569, 0.36863, 0.13333",What is the color of the tomato in the previous image?,,2022-04-06_09h28.43.257,Representative Color,2021.2.3,MacIntel,60.0024001,3250,,,,,,
,,,,,,,,,,,,,,,,,,,,,,,,,,,,,,,,,,2022-04-06_09h28.43.257,Representative Color,2021.2.3,MacIntel,60.0024001,3250,0,4,4,4,1,resources/trialFull.xlsx
