textboxDate.text,textboxElectronicSignature.text,textboxAge.text,textboxInitials.text,sliderViewConditions.response,sliderColorScientist.response,sliderCVD.response,sliderGenderIdentification.response,mouseResponse.x,mouseResponse.y,mouseResponse.leftButton,mouseResponse.midButton,mouseResponse.rightButton,mouseResponse.time,mouseResponse.clicked_name,mouseResponseLocation,choiceColor,choiceIndex,trialsStimuli.thisRepN,trialsStimuli.thisTrialN,trialsStimuli.thisN,trialsStimuli.thisIndex,trialsStimuli.ran,File_Name,color1,color2,color3,color4,color5,color6,color7,color8,Question,date,expName,psychopyVersion,OS,frameRate,trialsBlock.thisRepN,trialsBlock.thisTrialN,trialsBlock.thisN,trialsBlock.thisIndex,trialsBlock.ran,cond_file
3/2/2022,C5B326E4D436C36C9FA505B616D63C5533B94A52,22,,1,2,2,2,-0.182407386,0.079166654,1,0,0,5.8929,thirdChoice,2,"0.68627, 0.71373, 0.26667",5,0,0,0,1,1,resources/test_tomato_green.png,"0.50196, 0.52941, 0.19608","0.57255, 0.58431, 0.12549","0.53942, 0.56976, 0.20711","0.6093, 0.62259, 0.12696","0.68627, 0.71373, 0.26667","0.4549, 0.49412, 0.11765","0.61961, 0.64314, 0.26667","0.37647, 0.41569, 0.12941",What is the color of the previous image?,2022-03-02_10h09.11.959,Representative Color,2021.2.3,Win32,60.14675809,,,,,,
,,,,,,,,-0.078240717,0.173148138,1,0,0,7.1619,firstChoice,0,"0.21025, 0.38424, 0.70588",6,0,1,1,2,1,resources/test_sky.png,"0.26275, 0.46667, 0.76863","0.2, 0.35686, 0.6902","0.27689, 0.50341, 0.83205","0.21961, 0.41176, 0.72157","0.2415, 0.43907, 0.74504","0.21025, 0.38424, 0.70588","0.35291, 0.58434, 0.85098","0.42745, 0.60784, 0.84314",What is the color of the previous image?,2022-03-02_10h09.11.959,Representative Color,2021.2.3,Win32,60.14675809,,,,,,
,,,,,,,,0.161574105,0.050925913,1,0,0,4.8262,fourthChoice,3,"0.88235, 0.33333, 0.21176",4,0,2,2,3,1,resources/test_tomato_red.png,"0.80784, 0.27451, 0.18431","0.84314, 0.21961, 0.10196","0.86089, 0.28874, 0.19361","0.88235, 0.33333, 0.21176","0.74118, 0.22745, 0.16863","0.79608, 0.21569, 0.12941","0.77439, 0.25104, 0.17647","0.85235, 0.25555, 0.14958",What is the color of the tomato in the previous image?,2022-03-02_10h09.11.959,Representative Color,2021.2.3,Win32,60.14675809,,,,,,
,,,,,,,,0.145833364,0.03935181,1,0,0,3.0784,fourthChoice,3,"0.6, 0.043137, 0.035294",2,0,3,3,0,1,resources/test_wine.png,"0.40784, 0.070588, 0.070588","0.6, 0.043137, 0.035294","0.44887, 0.066156, 0.074042","0.49412, 0.090196, 0.062745","0.53725, 0.011765, 0.0078431","0.30196, 0.066667, 0.062745","0.35427, 0.069613, 0.067232","0.41756, 0.054997, 0.039926",What is the color of the previous image?,2022-03-02_10h09.11.959,Representative Color,2021.2.3,Win32,60.14675809,,,,,,
,,,,,,,,,,,,,,,,,,,,,,,,,,,,,,,,,2022-03-02_10h09.11.959,Representative Color,2021.2.3,Win32,60.14675809,0,0,0,0,1,resources/training.xlsx
,,,,,,,,-0.048148067,-0.15324076,1,0,0,6.7136,seventhChoice,6,"0.69412, 0.4, 0.24314",6,0,0,0,10,1,resources/t1Model-Ol.png,"0.69412, 0.47451, 0.35294","0.7537, 0.51393, 0.381","0.75045, 0.43076, 0.25995","0.56863, 0.2902, 0.18039","0.52941, 0.28235, 0.15294","0.69412, 0.4, 0.24314","0.79608, 0.58039, 0.45098","0.58431, 0.37255, 0.24706",What is the color of the previous image?,2022-03-02_10h09.11.959,Representative Color,2021.2.3,Win32,60.14675809,,,,,,
,,,,,,,,0.033333361,0.147685175,1,0,0,6.0821,secondChoice,1,"0.37836, 0.0080068, 0.055199",3,0,1,1,1,1,resources/t1DSC_0021.png,"0.16863, 0.027451, 0.035294","0.34118, 0.023529, 0.05098","0.37836, 0.0080068, 0.055199","0.37255, 0.12157, 0.18431","0.34902, 0.043137, 0.094118","0.41569, 0.23529, 0.29804","0.21569, 0.0078431, 0.019608","0.44314, 0.16863, 0.21961",What is the color of the previous image?,2022-03-02_10h09.11.959,Representative Color,2021.2.3,Win32,60.14675809,,,,,,
,,,,,,,,0.168981513,-0.059722239,1,0,0,7.2482,sixthChoice,5,"0.64714, 0.32317, 0.22415",3,0,2,2,12,1,resources/t1Model-Y.png,"0.72941, 0.52157, 0.4","0.78972, 0.56355, 0.43105","0.64714, 0.32317, 0.22415","0.62353, 0.34902, 0.22353","0.59216, 0.29804, 0.20784","0.6902, 0.47843, 0.36471","0.80392, 0.60392, 0.49412","0.60784, 0.39216, 0.26275",What is the color of the previous image?,2022-03-02_10h09.11.959,Representative Color,2021.2.3,Win32,60.14675809,,,,,,
,,,,,,,,0.136111142,0.076851811,1,0,0,6.2478,fourthChoice,3,"0.30588, 0.41569, 0.18824",1,0,3,3,19,1,resources/t1zgrass.png,"0.30588, 0.41569, 0.18824","0.36341, 0.42546, 0.21823","0.33318, 0.45547, 0.20282","0.32157, 0.38039, 0.19216","0.27231, 0.37211, 0.15269","0.31422, 0.39807, 0.19031","0.34895, 0.44055, 0.21071","0.28046, 0.35484, 0.15506",What is the color of the previous image?,2022-03-02_10h09.11.959,Representative Color,2021.2.3,Win32,60.14675809,,,,,,
,,,,,,,,0.054166695,-0.150000019,1,0,0,5.3817,eighthChoice,7,"0.49412, 0.28627, 0.16471",7,0,4,4,11,1,resources/t1Model-R.png,"0.56863, 0.34902, 0.22353","0.54902, 0.27843, 0.15686","0.62375, 0.38114, 0.24213","0.60078, 0.30229, 0.16803","0.48235, 0.24314, 0.13333","0.65098, 0.41176, 0.28235","0.49412, 0.28627, 0.16471","0.54118, 0.31373, 0.19216",What is the color of the previous image?,2022-03-02_10h09.11.959,Representative Color,2021.2.3,Win32,60.14675809,,,,,,
,,,,,,,,-0.160185163,-0.059722239,1,0,0,4.8311,fifthChoice,4,"0.41001, 0.54883, 0.79353",3,0,5,5,18,1,resources/t1sky.png,"0.38039, 0.50588, 0.72941","0.60278, 0.71367, 0.87522","0.41001, 0.54883, 0.79353","0.54118, 0.65098, 0.81961","0.48627, 0.6, 0.78824","0.39516, 0.52728, 0.76134","0.50889, 0.63012, 0.83447","0.4494, 0.57426, 0.79097",What is the color of the previous image?,2022-03-02_10h09.11.959,Representative Color,2021.2.3,Win32,60.14675809,,,,,,
,,,,,,,,0.155555587,-0.061111128,1,0,0,9.415,sixthChoice,5,"0.52549, 0.2902, 0.16471",1,0,6,6,6,1,resources/t1Model-L.png,"0.52549, 0.2902, 0.16471","0.61569, 0.30588, 0.18039","0.57757, 0.31686, 0.1774","0.66902, 0.33001, 0.19272","0.47843, 0.25098, 0.13333","0.65882, 0.4, 0.25882","0.61176, 0.36078, 0.23137","0.41961, 0.20784, 0.094118",What is the color of the previous image?,2022-03-02_10h09.11.959,Representative Color,2021.2.3,Win32,60.14675809,,,,,,
,,,,,,,,-0.156481403,-0.044907424,1,0,0,5.2814,fifthChoice,4,"0.61176, 0.34902, 0.18431",5,0,7,7,7,1,resources/t1Model-LC.png,"0.73725, 0.52941, 0.38431","0.79679, 0.57109, 0.41322","0.66488, 0.37758, 0.19682","0.58431, 0.32157, 0.18431","0.61176, 0.34902, 0.18431","0.68627, 0.47059, 0.32941","0.81569, 0.61176, 0.47843","0.63529, 0.42353, 0.27451",What is the color of the previous image?,2022-03-02_10h09.11.959,Representative Color,2021.2.3,Win32,60.14675809,,,,,,
,,,,,,,,-0.071296272,0.204629621,1,0,0,2.4478,firstChoice,0,"0.43529, 0.22353, 0.12157",1,0,8,8,14,1,resources/t1Model-yl.png,"0.43529, 0.22353, 0.12157","0.48425, 0.24604, 0.13103","0.74365, 0.40389, 0.19507","0.56078, 0.26667, 0.1451","0.35294, 0.16078, 0.070588","0.6, 0.35294, 0.22353","0.55294, 0.31373, 0.19216","0.30588, 0.12549, 0.043137",What is the color of the previous image?,2022-03-02_10h09.11.959,Representative Color,2021.2.3,Win32,60.14675809,,,,,,
,,,,,,,,-0.16064807,0.069444432,1,0,0,5.3319,thirdChoice,2,"0.73725, 0.54118, 0.45098",1,0,9,9,4,1,resources/t1Model-B.png,"0.73725, 0.54118, 0.45098","0.79859, 0.58507, 0.48676","0.72531, 0.40323, 0.30464","0.71373, 0.40784, 0.36078","0.8, 0.48235, 0.4","0.68235, 0.44314, 0.33333","0.64706, 0.45882, 0.36471","0.71765, 0.49804, 0.41176",What is the color of the previous image?,2022-03-02_10h09.11.959,Representative Color,2021.2.3,Win32,60.14675809,,,,,,
,,,,,,,,-0.144444422,-0.031018534,1,0,0,1.5475,fifthChoice,4,"0.4549, 0.23137, 0.12157",8,0,10,10,5,1,resources/t1Model-J.png,"0.74118, 0.41961, 0.23529","0.52414, 0.27049, 0.13884","0.79714, 0.44966, 0.25005","0.63529, 0.38824, 0.21569","0.70588, 0.43922, 0.2549","0.64314, 0.33725, 0.18431","0.56863, 0.32157, 0.19216","0.4549, 0.23137, 0.12157",What is the color of the previous image?,2022-03-02_10h09.11.959,Representative Color,2021.2.3,Win32,60.14675809,,,,,,
,,,,,,,,-0.184722201,0.046759246,1,0,0,1.8788,thirdChoice,2,"0.72549, 0.51373, 0.4",1,0,11,11,8,1,resources/t1Model-M.png,"0.72549, 0.51373, 0.4","0.65098, 0.35294, 0.25098","0.78605, 0.55541, 0.43138","0.68985, 0.4335, 0.3243","0.6843, 0.46832, 0.35448","0.71971, 0.45365, 0.33937","0.73744, 0.47932, 0.37149","0.71412, 0.48874, 0.36979",What is the color of the previous image?,2022-03-02_10h09.11.959,Representative Color,2021.2.3,Win32,60.14675809,,,,,,
,,,,,,,,-0.193518498,-0.043981498,1,0,0,2.8812,fifthChoice,4,"0.35294, 0.47451, 0.15294",1,0,12,12,17,1,resources/t1zpeppers.png,"0.35294, 0.47451, 0.15294","0.48235, 0.63529, 0.13725","0.37942, 0.51262, 0.16068","0.5104, 0.6743, 0.13948","0.41176, 0.59216, 0.11373","0.417, 0.55383, 0.14817","0.38255, 0.53277, 0.1372","0.44713, 0.61369, 0.1255",What is the color of the previous image?,2022-03-02_10h09.11.959,Representative Color,2021.2.3,Win32,60.14675809,,,,,,
,,,,,,,,-0.169907386,0.077314802,1,0,0,6.3139,thirdChoice,2,"0.36342, 0.17598, 0.098248",2,0,13,13,9,1,resources/t1Model-O.png,"0.31765, 0.15686, 0.090196","0.36342, 0.17598, 0.098248","0.55928, 0.25965, 0.13367","0.38431, 0.14902, 0.047059","0.22745, 0.098039, 0.05098","0.27161, 0.12707, 0.072951","0.41066, 0.19954, 0.10607","0.30444, 0.12352, 0.051246",What is the color of the previous image?,2022-03-02_10h09.11.959,Representative Color,2021.2.3,Win32,60.14675809,,,,,,
,,,,,,,,0.193981514,-0.035648164,1,0,0,4.348,sixthChoice,5,"0.81569, 0.36863, 0.13333",8,0,14,14,16,1,resources/t1mysteryLightOr_hdrOff.png,"0.81569, 0.43922, 0.22353","0.8714, 0.46756, 0.23566","0.91794, 0.40919, 0.093393","0.77255, 0.29804, 0.07451","0.9098, 0.55294, 0.30196","0.88627, 0.50196, 0.23922","0.72941, 0.36471, 0.19608","0.81569, 0.36863, 0.13333",What is the color of the previous image?,2022-03-02_10h09.11.959,Representative Color,2021.2.3,Win32,60.14675809,,,,,,
,,,,,,,,-0.043518493,0.166666657,1,0,0,9.2952,firstChoice,0,"0.21431, 0.034629, 0.057098",2,0,15,15,2,1,resources/t1DSC_0025.png,"0.39608, 0.058824, 0.070588","0.21431, 0.034629, 0.057098","0.43656, 0.051112, 0.07439","0.51373, 0.35294, 0.40784","0.21961, 0.086275, 0.12549","0.33333, 0.019608, 0.031373","0.36078, 0.26667, 0.32157","0.48235, 0.22745, 0.26275",What is the color of the previous image?,2022-03-02_10h09.11.959,Representative Color,2021.2.3,Win32,60.14675809,,,,,,
,,,,,,,,-0.037499975,-0.171296316,1,0,0,4.6973,seventhChoice,6,"0.72549, 0.62353, 0.15686",2,0,16,16,15,1,resources/t1green22days1_hdrOff.png,"0.68235, 0.57255, 0.20784","0.72549, 0.62353, 0.15686","0.76987, 0.66176, 0.16087","0.82745, 0.62745, 0.21569","0.70588, 0.53725, 0.12549","0.7451, 0.66275, 0.27451","0.60784, 0.52941, 0.18824","0.65098, 0.51373, 0.18824",What is the color of the previous image?,2022-03-02_10h09.11.959,Representative Color,2021.2.3,Win32,60.14675809,,,,,,
,,,,,,,,-0.185648127,0.026388875,1,0,0,3.7809,thirdChoice,2,"0.62936, 0.38426, 0.22577",5,0,17,17,13,1,resources/t1Model-ll.png,"0.59608, 0.36863, 0.23137","0.66275, 0.4, 0.21961","0.71741, 0.4315, 0.23453","0.65882, 0.43137, 0.29412","0.62936, 0.38426, 0.22577","0.54887, 0.3251, 0.1898","0.68099, 0.43522, 0.27061","0.58137, 0.34036, 0.18379",What is the color of the previous image?,2022-03-02_10h09.11.959,Representative Color,2021.2.3,Win32,60.14675809,,,,,,
,,,,,,,,-0.054166642,0.151388878,1,0,0,1.4316,firstChoice,0,"0.72157, 0.47059, 0.33333",5,0,18,18,3,1,resources/t1Model-A.png,"0.60784, 0.39216, 0.26667","0.59216, 0.31765, 0.21569","0.66468, 0.4273, 0.28886","0.64755, 0.3451, 0.23286","0.72157, 0.47059, 0.33333","0.42353, 0.18824, 0.094118","0.50588, 0.29804, 0.19608","0.56078, 0.3451, 0.23529",What is the color of the previous image?,2022-03-02_10h09.11.959,Representative Color,2021.2.3,Win32,60.14675809,,,,,,
,,,,,,,,0.19490744,0.079629589,1,0,0,2.1313,fourthChoice,3,"0.60392, 0.60392, 0.55686",5,0,19,19,0,1,resources/t1DSC_0016.png,"0.6, 0.58039, 0.4549","0.6564, 0.64356, 0.5619","0.65167, 0.63033, 0.49287","0.60392, 0.59216, 0.50196","0.60392, 0.60392, 0.55686","0.62839, 0.6118, 0.50808","0.62574, 0.60526, 0.47382","0.60418, 0.59802, 0.5294",What is the color of the previous image?,2022-03-02_10h09.11.959,Representative Color,2021.2.3,Win32,60.14675809,,,,,,
,,,,,,,,,,,,,,,,,,,,,,,,,,,,,,,,,2022-03-02_10h09.11.959,Representative Color,2021.2.3,Win32,60.14675809,0,1,1,1,1,resources/trialScramble.xlsx
,,,,,,,,0.054629714,0.153703693,1,0,0,3.8312,secondChoice,1,"0.54118, 0.65098, 0.81961",4,0,0,0,18,1,resources/t2sky.png,"0.38039, 0.50588, 0.72941","0.60278, 0.71367, 0.87522","0.41001, 0.54883, 0.79353","0.54118, 0.65098, 0.81961","0.48627, 0.6, 0.78824","0.39516, 0.52728, 0.76134","0.50889, 0.63012, 0.83447","0.4494, 0.57426, 0.79097",What is the color of the previous image?,2022-03-02_10h09.11.959,Representative Color,2021.2.3,Win32,60.14675809,,,,,,
,,,,,,,,0.150925957,-0.08009261,1,0,0,3.8807,sixthChoice,5,"0.72157, 0.47059, 0.33333",5,0,1,1,3,1,resources/t2Model-A.png,"0.60784, 0.39216, 0.26667","0.59216, 0.31765, 0.21569","0.66468, 0.4273, 0.28886","0.64755, 0.3451, 0.23286","0.72157, 0.47059, 0.33333","0.42353, 0.18824, 0.094118","0.50588, 0.29804, 0.19608","0.56078, 0.3451, 0.23529",What is the color of the previous image?,2022-03-02_10h09.11.959,Representative Color,2021.2.3,Win32,60.14675809,,,,,,
,,,,,,,,-0.0439814,0.176388879,1,0,0,1.4953,firstChoice,0,"0.79679, 0.57109, 0.41322",2,0,2,2,7,1,resources/t2Model-LC.png,"0.73725, 0.52941, 0.38431","0.79679, 0.57109, 0.41322","0.66488, 0.37758, 0.19682","0.58431, 0.32157, 0.18431","0.61176, 0.34902, 0.18431","0.68627, 0.47059, 0.32941","0.81569, 0.61176, 0.47843","0.63529, 0.42353, 0.27451",What is the color of the previous image?,2022-03-02_10h09.11.959,Representative Color,2021.2.3,Win32,60.14675809,,,,,,
,,,,,,,,-0.01805553,0.182870361,1,0,0,2.6621,firstChoice,0,"0.79859, 0.58507, 0.48676",2,0,3,3,4,1,resources/t2Model-B.png,"0.73725, 0.54118, 0.45098","0.79859, 0.58507, 0.48676","0.72531, 0.40323, 0.30464","0.71373, 0.40784, 0.36078","0.8, 0.48235, 0.4","0.68235, 0.44314, 0.33333","0.64706, 0.45882, 0.36471","0.71765, 0.49804, 0.41176",What is the color of the previous image?,2022-03-02_10h09.11.959,Representative Color,2021.2.3,Win32,60.14675809,,,,,,
,,,,,,,,-0.162036959,-0.043518535,1,0,0,6.7981,fifthChoice,4,"0.7537, 0.51393, 0.381",2,0,4,4,10,1,resources/t2Model-Ol.png,"0.69412, 0.47451, 0.35294","0.7537, 0.51393, 0.381","0.75045, 0.43076, 0.25995","0.56863, 0.2902, 0.18039","0.52941, 0.28235, 0.15294","0.69412, 0.4, 0.24314","0.79608, 0.58039, 0.45098","0.58431, 0.37255, 0.24706",What is the color of the previous image?,2022-03-02_10h09.11.959,Representative Color,2021.2.3,Win32,60.14675809,,,,,,
,,,,,,,,0.161574105,0.087037025,1,0,0,3.4466,fourthChoice,3,"0.41066, 0.19954, 0.10607",7,0,5,5,9,1,resources/t2Model-O.png,"0.31765, 0.15686, 0.090196","0.36342, 0.17598, 0.098248","0.55928, 0.25965, 0.13367","0.38431, 0.14902, 0.047059","0.22745, 0.098039, 0.05098","0.27161, 0.12707, 0.072951","0.41066, 0.19954, 0.10607","0.30444, 0.12352, 0.051246",What is the color of the previous image?,2022-03-02_10h09.11.959,Representative Color,2021.2.3,Win32,60.14675809,,,,,,
,,,,,,,,-0.07407405,0.164351842,1,0,0,2.7982,firstChoice,0,"0.21961, 0.086275, 0.12549",5,0,6,6,2,1,resources/t2DSC_0025.png,"0.39608, 0.058824, 0.070588","0.21431, 0.034629, 0.057098","0.43656, 0.051112, 0.07439","0.51373, 0.35294, 0.40784","0.21961, 0.086275, 0.12549","0.33333, 0.019608, 0.031373","0.36078, 0.26667, 0.32157","0.48235, 0.22745, 0.26275",What is the color of the previous image?,2022-03-02_10h09.11.959,Representative Color,2021.2.3,Win32,60.14675809,,,,,,
,,,,,,,,-0.143981403,-0.061111128,1,0,0,2.7976,fifthChoice,4,"0.60392, 0.60392, 0.55686",5,0,7,7,0,1,resources/t2DSC_0016.png,"0.6, 0.58039, 0.4549","0.6564, 0.64356, 0.5619","0.65167, 0.63033, 0.49287","0.60392, 0.59216, 0.50196","0.60392, 0.60392, 0.55686","0.62839, 0.6118, 0.50808","0.62574, 0.60526, 0.47382","0.60418, 0.59802, 0.5294",What is the color of the previous image?,2022-03-02_10h09.11.959,Representative Color,2021.2.3,Win32,60.14675809,,,,,,
,,,,,,,,0.199074106,-0.071296313,1,0,0,2.2647,sixthChoice,5,"0.54887, 0.3251, 0.1898",6,0,8,8,13,1,resources/t2Model-ll.png,"0.59608, 0.36863, 0.23137","0.66275, 0.4, 0.21961","0.71741, 0.4315, 0.23453","0.65882, 0.43137, 0.29412","0.62936, 0.38426, 0.22577","0.54887, 0.3251, 0.1898","0.68099, 0.43522, 0.27061","0.58137, 0.34036, 0.18379",What is the color of the previous image?,2022-03-02_10h09.11.959,Representative Color,2021.2.3,Win32,60.14675809,,,,,,
,,,,,,,,-0.169907386,-0.103240759,1,0,0,3.0814,fifthChoice,4,"0.70588, 0.53725, 0.12549",5,0,9,9,15,1,resources/t2green22days1_hdrOff.png,"0.68235, 0.57255, 0.20784","0.72549, 0.62353, 0.15686","0.76987, 0.66176, 0.16087","0.82745, 0.62745, 0.21569","0.70588, 0.53725, 0.12549","0.7451, 0.66275, 0.27451","0.60784, 0.52941, 0.18824","0.65098, 0.51373, 0.18824",What is the color of the previous image?,2022-03-02_10h09.11.959,Representative Color,2021.2.3,Win32,60.14675809,,,,,,
,,,,,,,,0.157407439,-0.081481499,1,0,0,3.9975,sixthChoice,5,"0.52414, 0.27049, 0.13884",2,0,10,10,5,1,resources/t2Model-J.png,"0.74118, 0.41961, 0.23529","0.52414, 0.27049, 0.13884","0.79714, 0.44966, 0.25005","0.63529, 0.38824, 0.21569","0.70588, 0.43922, 0.2549","0.64314, 0.33725, 0.18431","0.56863, 0.32157, 0.19216","0.4549, 0.23137, 0.12157",What is the color of the previous image?,2022-03-02_10h09.11.959,Representative Color,2021.2.3,Win32,60.14675809,,,,,,
,,,,,,,,0.151851883,-0.047222239,1,0,0,3.414,sixthChoice,5,"0.65882, 0.4, 0.25882",6,0,11,11,6,1,resources/t2Model-L.png,"0.52549, 0.2902, 0.16471","0.61569, 0.30588, 0.18039","0.57757, 0.31686, 0.1774","0.66902, 0.33001, 0.19272","0.47843, 0.25098, 0.13333","0.65882, 0.4, 0.25882","0.61176, 0.36078, 0.23137","0.41961, 0.20784, 0.094118",What is the color of the previous image?,2022-03-02_10h09.11.959,Representative Color,2021.2.3,Win32,60.14675809,,,,,,
,,,,,,,,0.053703732,-0.145833353,1,0,0,2.2812,eighthChoice,7,"0.77255, 0.29804, 0.07451",4,0,12,12,16,1,resources/t2mysteryLightOr_hdrOff.png,"0.81569, 0.43922, 0.22353","0.8714, 0.46756, 0.23566","0.91794, 0.40919, 0.093393","0.77255, 0.29804, 0.07451","0.9098, 0.55294, 0.30196","0.88627, 0.50196, 0.23922","0.72941, 0.36471, 0.19608","0.81569, 0.36863, 0.13333",What is the color of the previous image?,2022-03-02_10h09.11.959,Representative Color,2021.2.3,Win32,60.14675809,,,,,,
,,,,,,,,0.174537069,0.074999987,1,0,0,6.2495,fourthChoice,3,"0.38255, 0.53277, 0.1372",7,0,13,13,17,1,resources/t2zpeppers.png,"0.35294, 0.47451, 0.15294","0.48235, 0.63529, 0.13725","0.37942, 0.51262, 0.16068","0.5104, 0.6743, 0.13948","0.41176, 0.59216, 0.11373","0.417, 0.55383, 0.14817","0.38255, 0.53277, 0.1372","0.44713, 0.61369, 0.1255",What is the color of the previous image?,2022-03-02_10h09.11.959,Representative Color,2021.2.3,Win32,60.14675809,,,,,,
,,,,,,,,0.189351884,-0.055092609,1,0,0,1.6313,sixthChoice,5,"0.16863, 0.027451, 0.035294",1,0,14,14,1,1,resources/t2DSC_0021.png,"0.16863, 0.027451, 0.035294","0.34118, 0.023529, 0.05098","0.37836, 0.0080068, 0.055199","0.37255, 0.12157, 0.18431","0.34902, 0.043137, 0.094118","0.41569, 0.23529, 0.29804","0.21569, 0.0078431, 0.019608","0.44314, 0.16863, 0.21961",What is the color of the previous image?,2022-03-02_10h09.11.959,Representative Color,2021.2.3,Win32,60.14675809,,,,,,
,,,,,,,,0.160648179,0.083333321,1,0,0,1.7143,fourthChoice,3,"0.30588, 0.41569, 0.18824",1,0,15,15,19,1,resources/t2zgrass.png,"0.30588, 0.41569, 0.18824","0.36341, 0.42546, 0.21823","0.33318, 0.45547, 0.20282","0.32157, 0.38039, 0.19216","0.27231, 0.37211, 0.15269","0.31422, 0.39807, 0.19031","0.34895, 0.44055, 0.21071","0.28046, 0.35484, 0.15506",What is the color of the previous image?,2022-03-02_10h09.11.959,Representative Color,2021.2.3,Win32,60.14675809,,,,,,
,,,,,,,,-0.064814734,-0.174074094,1,0,0,3.4476,seventhChoice,6,"0.48425, 0.24604, 0.13103",2,0,16,16,14,1,resources/t2Model-yl.png,"0.43529, 0.22353, 0.12157","0.48425, 0.24604, 0.13103","0.74365, 0.40389, 0.19507","0.56078, 0.26667, 0.1451","0.35294, 0.16078, 0.070588","0.6, 0.35294, 0.22353","0.55294, 0.31373, 0.19216","0.30588, 0.12549, 0.043137",What is the color of the previous image?,2022-03-02_10h09.11.959,Representative Color,2021.2.3,Win32,60.14675809,,,,,,
,,,,,,,,0.058333362,0.176851842,1,0,0,1.6642,secondChoice,1,"0.78605, 0.55541, 0.43138",3,0,17,17,8,1,resources/t2Model-M.png,"0.72549, 0.51373, 0.4","0.65098, 0.35294, 0.25098","0.78605, 0.55541, 0.43138","0.68985, 0.4335, 0.3243","0.6843, 0.46832, 0.35448","0.71971, 0.45365, 0.33937","0.73744, 0.47932, 0.37149","0.71412, 0.48874, 0.36979",What is the color of the previous image?,2022-03-02_10h09.11.959,Representative Color,2021.2.3,Win32,60.14675809,,,,,,
,,,,,,,,0.16851855,-0.048148164,1,0,0,1.7817,sixthChoice,5,"0.62375, 0.38114, 0.24213",3,0,18,18,11,1,resources/t2Model-R.png,"0.56863, 0.34902, 0.22353","0.54902, 0.27843, 0.15686","0.62375, 0.38114, 0.24213","0.60078, 0.30229, 0.16803","0.48235, 0.24314, 0.13333","0.65098, 0.41176, 0.28235","0.49412, 0.28627, 0.16471","0.54118, 0.31373, 0.19216",What is the color of the previous image?,2022-03-02_10h09.11.959,Representative Color,2021.2.3,Win32,60.14675809,,,,,,
,,,,,,,,0.16851855,-0.048148164,1,0,0,1.5652,sixthChoice,5,"0.78972, 0.56355, 0.43105",2,0,19,19,12,1,resources/t2Model-Y.png,"0.72941, 0.52157, 0.4","0.78972, 0.56355, 0.43105","0.64714, 0.32317, 0.22415","0.62353, 0.34902, 0.22353","0.59216, 0.29804, 0.20784","0.6902, 0.47843, 0.36471","0.80392, 0.60392, 0.49412","0.60784, 0.39216, 0.26275",What is the color of the previous image?,2022-03-02_10h09.11.959,Representative Color,2021.2.3,Win32,60.14675809,,,,,,
,,,,,,,,,,,,,,,,,,,,,,,,,,,,,,,,,2022-03-02_10h09.11.959,Representative Color,2021.2.3,Win32,60.14675809,0,2,2,2,1,resources/trialSixteen.xlsx
,,,,,,,,0.162962994,0.055092579,1,0,0,2.1318,fourthChoice,3,"0.37942, 0.51262, 0.16068",3,0,0,0,17,1,resources/t3zpeppers.png,"0.35294, 0.47451, 0.15294","0.48235, 0.63529, 0.13725","0.37942, 0.51262, 0.16068","0.5104, 0.6743, 0.13948","0.41176, 0.59216, 0.11373","0.417, 0.55383, 0.14817","0.38255, 0.53277, 0.1372","0.44713, 0.61369, 0.1255",What is the color of the previous image?,2022-03-02_10h09.11.959,Representative Color,2021.2.3,Win32,60.14675809,,,,,,
,,,,,,,,-0.162036959,-0.068055572,1,0,0,2.365,fifthChoice,4,"0.27231, 0.37211, 0.15269",5,0,1,1,19,1,resources/t3zgrass.png,"0.30588, 0.41569, 0.18824","0.36341, 0.42546, 0.21823","0.33318, 0.45547, 0.20282","0.32157, 0.38039, 0.19216","0.27231, 0.37211, 0.15269","0.31422, 0.39807, 0.19031","0.34895, 0.44055, 0.21071","0.28046, 0.35484, 0.15506",What is the color of the previous image?,2022-03-02_10h09.11.959,Representative Color,2021.2.3,Win32,60.14675809,,,,,,
,,,,,,,,0.035185269,-0.149074093,1,0,0,1.6984,eighthChoice,7,"0.79608, 0.58039, 0.45098",7,0,2,2,10,1,resources/t3Model-Ol.png,"0.69412, 0.47451, 0.35294","0.7537, 0.51393, 0.381","0.75045, 0.43076, 0.25995","0.56863, 0.2902, 0.18039","0.52941, 0.28235, 0.15294","0.69412, 0.4, 0.24314","0.79608, 0.58039, 0.45098","0.58431, 0.37255, 0.24706",What is the color of the previous image?,2022-03-02_10h09.11.959,Representative Color,2021.2.3,Win32,60.14675809,,,,,,
,,,,,,,,0.04722225,0.171759249,1,0,0,1.3813,secondChoice,1,"0.39608, 0.058824, 0.070588",1,0,3,3,2,1,resources/t3DSC_0025.png,"0.39608, 0.058824, 0.070588","0.21431, 0.034629, 0.057098","0.43656, 0.051112, 0.07439","0.51373, 0.35294, 0.40784","0.21961, 0.086275, 0.12549","0.33333, 0.019608, 0.031373","0.36078, 0.26667, 0.32157","0.48235, 0.22745, 0.26275",What is the color of the previous image?,2022-03-02_10h09.11.959,Representative Color,2021.2.3,Win32,60.14675809,,,,,,
,,,,,,,,0.075000029,0.198148139,1,0,0,3.8985,secondChoice,1,"0.48425, 0.24604, 0.13103",2,0,4,4,14,1,resources/t3Model-yl.png,"0.43529, 0.22353, 0.12157","0.48425, 0.24604, 0.13103","0.74365, 0.40389, 0.19507","0.56078, 0.26667, 0.1451","0.35294, 0.16078, 0.070588","0.6, 0.35294, 0.22353","0.55294, 0.31373, 0.19216","0.30588, 0.12549, 0.043137",What is the color of the previous image?,2022-03-02_10h09.11.959,Representative Color,2021.2.3,Win32,60.14675809,,,,,,
,,,,,,,,-0.20324072,0.060185144,1,0,0,2.9811,thirdChoice,2,"0.36342, 0.17598, 0.098248",2,0,5,5,9,1,resources/t3Model-O.png,"0.31765, 0.15686, 0.090196","0.36342, 0.17598, 0.098248","0.55928, 0.25965, 0.13367","0.38431, 0.14902, 0.047059","0.22745, 0.098039, 0.05098","0.27161, 0.12707, 0.072951","0.41066, 0.19954, 0.10607","0.30444, 0.12352, 0.051246",What is the color of the previous image?,2022-03-02_10h09.11.959,Representative Color,2021.2.3,Win32,60.14675809,,,,,,
,,,,,,,,0.15925929,0.046296255,1,0,0,1.6981,fourthChoice,3,"0.66275, 0.4, 0.21961",2,0,6,6,13,1,resources/t3Model-ll.png,"0.59608, 0.36863, 0.23137","0.66275, 0.4, 0.21961","0.71741, 0.4315, 0.23453","0.65882, 0.43137, 0.29412","0.62936, 0.38426, 0.22577","0.54887, 0.3251, 0.1898","0.68099, 0.43522, 0.27061","0.58137, 0.34036, 0.18379",What is the color of the previous image?,2022-03-02_10h09.11.959,Representative Color,2021.2.3,Win32,60.14675809,,,,,,
,,,,,,,,0.158333365,0.052314801,1,0,0,2.3316,fourthChoice,3,"0.65098, 0.41176, 0.28235",6,0,7,7,11,1,resources/t3Model-R.png,"0.56863, 0.34902, 0.22353","0.54902, 0.27843, 0.15686","0.62375, 0.38114, 0.24213","0.60078, 0.30229, 0.16803","0.48235, 0.24314, 0.13333","0.65098, 0.41176, 0.28235","0.49412, 0.28627, 0.16471","0.54118, 0.31373, 0.19216",What is the color of the previous image?,2022-03-02_10h09.11.959,Representative Color,2021.2.3,Win32,60.14675809,,,,,,
,,,,,,,,-0.073148067,0.18888888,1,0,0,1.8644,firstChoice,0,"0.65882, 0.4, 0.25882",6,0,8,8,6,1,resources/t3Model-L.png,"0.52549, 0.2902, 0.16471","0.61569, 0.30588, 0.18039","0.57757, 0.31686, 0.1774","0.66902, 0.33001, 0.19272","0.47843, 0.25098, 0.13333","0.65882, 0.4, 0.25882","0.61176, 0.36078, 0.23137","0.41961, 0.20784, 0.094118",What is the color of the previous image?,2022-03-02_10h09.11.959,Representative Color,2021.2.3,Win32,60.14675809,,,,,,
,,,,,,,,0.188425958,-0.062037054,1,0,0,1.2809,sixthChoice,5,"0.79859, 0.58507, 0.48676",2,0,9,9,4,1,resources/t3Model-B.png,"0.73725, 0.54118, 0.45098","0.79859, 0.58507, 0.48676","0.72531, 0.40323, 0.30464","0.71373, 0.40784, 0.36078","0.8, 0.48235, 0.4","0.68235, 0.44314, 0.33333","0.64706, 0.45882, 0.36471","0.71765, 0.49804, 0.41176",What is the color of the previous image?,2022-03-02_10h09.11.959,Representative Color,2021.2.3,Win32,60.14675809,,,,,,
,,,,,,,,0.158333365,0.020833319,1,0,0,1.3204,fourthChoice,3,"0.80392, 0.60392, 0.49412",7,0,10,10,12,1,resources/t3Model-Y.png,"0.72941, 0.52157, 0.4","0.78972, 0.56355, 0.43105","0.64714, 0.32317, 0.22415","0.62353, 0.34902, 0.22353","0.59216, 0.29804, 0.20784","0.6902, 0.47843, 0.36471","0.80392, 0.60392, 0.49412","0.60784, 0.39216, 0.26275",What is the color of the previous image?,2022-03-02_10h09.11.959,Representative Color,2021.2.3,Win32,60.14675809,,,,,,
,,,,,,,,0.181944476,0.05370369,1,0,0,1.481,fourthChoice,3,"0.52414, 0.27049, 0.13884",2,0,11,11,5,1,resources/t3Model-J.png,"0.74118, 0.41961, 0.23529","0.52414, 0.27049, 0.13884","0.79714, 0.44966, 0.25005","0.63529, 0.38824, 0.21569","0.70588, 0.43922, 0.2549","0.64314, 0.33725, 0.18431","0.56863, 0.32157, 0.19216","0.4549, 0.23137, 0.12157",What is the color of the previous image?,2022-03-02_10h09.11.959,Representative Color,2021.2.3,Win32,60.14675809,,,,,,
,,,,,,,,-0.188425905,0.032407365,1,0,0,2.3458,thirdChoice,2,"0.73725, 0.52941, 0.38431",1,0,12,12,7,1,resources/t3Model-LC.png,"0.73725, 0.52941, 0.38431","0.79679, 0.57109, 0.41322","0.66488, 0.37758, 0.19682","0.58431, 0.32157, 0.18431","0.61176, 0.34902, 0.18431","0.68627, 0.47059, 0.32941","0.81569, 0.61176, 0.47843","0.63529, 0.42353, 0.27451",What is the color of the previous image?,2022-03-02_10h09.11.959,Representative Color,2021.2.3,Win32,60.14675809,,,,,,
,,,,,,,,0.045833361,-0.155555575,1,0,0,3.2817,eighthChoice,7,"0.60278, 0.71367, 0.87522",2,0,13,13,18,1,resources/t3sky.png,"0.38039, 0.50588, 0.72941","0.60278, 0.71367, 0.87522","0.41001, 0.54883, 0.79353","0.54118, 0.65098, 0.81961","0.48627, 0.6, 0.78824","0.39516, 0.52728, 0.76134","0.50889, 0.63012, 0.83447","0.4494, 0.57426, 0.79097",What is the color of the previous image?,2022-03-02_10h09.11.959,Representative Color,2021.2.3,Win32,60.14675809,,,,,,
,,,,,,,,0.051851936,0.134722211,1,0,0,2.0647,secondChoice,1,"0.72157, 0.47059, 0.33333",5,0,14,14,3,1,resources/t3Model-A.png,"0.60784, 0.39216, 0.26667","0.59216, 0.31765, 0.21569","0.66468, 0.4273, 0.28886","0.64755, 0.3451, 0.23286","0.72157, 0.47059, 0.33333","0.42353, 0.18824, 0.094118","0.50588, 0.29804, 0.19608","0.56078, 0.3451, 0.23529",What is the color of the previous image?,2022-03-02_10h09.11.959,Representative Color,2021.2.3,Win32,60.14675809,,,,,,
,,,,,,,,-0.174536959,-0.056944461,1,0,0,1.215,fifthChoice,4,"0.76987, 0.66176, 0.16087",3,0,15,15,15,1,resources/t3green22days1_hdrOff.png,"0.68235, 0.57255, 0.20784","0.72549, 0.62353, 0.15686","0.76987, 0.66176, 0.16087","0.82745, 0.62745, 0.21569","0.70588, 0.53725, 0.12549","0.7451, 0.66275, 0.27451","0.60784, 0.52941, 0.18824","0.65098, 0.51373, 0.18824",What is the color of the previous image?,2022-03-02_10h09.11.959,Representative Color,2021.2.3,Win32,60.14675809,,,,,,
,,,,,,,,-0.174536959,-0.056944461,1,0,0,0.665,fifthChoice,4,"0.65167, 0.63033, 0.49287",3,0,16,16,0,1,resources/t3DSC_0016.png,"0.6, 0.58039, 0.4549","0.6564, 0.64356, 0.5619","0.65167, 0.63033, 0.49287","0.60392, 0.59216, 0.50196","0.60392, 0.60392, 0.55686","0.62839, 0.6118, 0.50808","0.62574, 0.60526, 0.47382","0.60418, 0.59802, 0.5294",What is the color of the previous image?,2022-03-02_10h09.11.959,Representative Color,2021.2.3,Win32,60.14675809,,,,,,
,,,,,,,,0.170833365,-0.074074091,1,0,0,1.2981,sixthChoice,5,"0.37836, 0.0080068, 0.055199",3,0,17,17,1,1,resources/t3DSC_0021.png,"0.16863, 0.027451, 0.035294","0.34118, 0.023529, 0.05098","0.37836, 0.0080068, 0.055199","0.37255, 0.12157, 0.18431","0.34902, 0.043137, 0.094118","0.41569, 0.23529, 0.29804","0.21569, 0.0078431, 0.019608","0.44314, 0.16863, 0.21961",What is the color of the previous image?,2022-03-02_10h09.11.959,Representative Color,2021.2.3,Win32,60.14675809,,,,,,
,,,,,,,,-0.151388867,0.076851811,1,0,0,1.7314,thirdChoice,2,"0.77255, 0.29804, 0.07451",4,0,18,18,16,1,resources/t3mysteryLightOr_hdrOff.png,"0.81569, 0.43922, 0.22353","0.8714, 0.46756, 0.23566","0.91794, 0.40919, 0.093393","0.77255, 0.29804, 0.07451","0.9098, 0.55294, 0.30196","0.88627, 0.50196, 0.23922","0.72941, 0.36471, 0.19608","0.81569, 0.36863, 0.13333",What is the color of the previous image?,2022-03-02_10h09.11.959,Representative Color,2021.2.3,Win32,60.14675809,,,,,,
,,,,,,,,-0.180092571,-0.043055572,1,0,0,1.462,fifthChoice,4,"0.78605, 0.55541, 0.43138",3,0,19,19,8,1,resources/t3Model-M.png,"0.72549, 0.51373, 0.4","0.65098, 0.35294, 0.25098","0.78605, 0.55541, 0.43138","0.68985, 0.4335, 0.3243","0.6843, 0.46832, 0.35448","0.71971, 0.45365, 0.33937","0.73744, 0.47932, 0.37149","0.71412, 0.48874, 0.36979",What is the color of the previous image?,2022-03-02_10h09.11.959,Representative Color,2021.2.3,Win32,60.14675809,,,,,,
,,,,,,,,,,,,,,,,,,,,,,,,,,,,,,,,,2022-03-02_10h09.11.959,Representative Color,2021.2.3,Win32,60.14675809,0,3,3,3,1,resources/trialSixtyFour.xlsx
,,,,,,,,-0.038888864,0.174537027,1,0,0,2.3497,firstChoice,0,"0.4494, 0.57426, 0.79097",8,0,0,0,18,1,resources/t4sky.png,"0.38039, 0.50588, 0.72941","0.60278, 0.71367, 0.87522","0.41001, 0.54883, 0.79353","0.54118, 0.65098, 0.81961","0.48627, 0.6, 0.78824","0.39516, 0.52728, 0.76134","0.50889, 0.63012, 0.83447","0.4494, 0.57426, 0.79097",What is the color of the sky in the previous image?,2022-03-02_10h09.11.959,Representative Color,2021.2.3,Win32,60.14675809,,,,,,
,,,,,,,,-0.038888864,0.144907397,1,0,0,2.2428,firstChoice,0,"0.55294, 0.31373, 0.19216",7,0,1,1,14,1,resources/t4Model-yl.png,"0.43529, 0.22353, 0.12157","0.48425, 0.24604, 0.13103","0.74365, 0.40389, 0.19507","0.56078, 0.26667, 0.1451","0.35294, 0.16078, 0.070588","0.6, 0.35294, 0.22353","0.55294, 0.31373, 0.19216","0.30588, 0.12549, 0.043137",What is the color of the person's skin in the previous image?,2022-03-02_10h09.11.959,Representative Color,2021.2.3,Win32,60.14675809,,,,,,
,,,,,,,,-0.166666645,0.066203691,1,0,0,3.2623,thirdChoice,2,"0.33318, 0.45547, 0.20282",3,0,2,2,19,1,resources/t4zgrass.png,"0.30588, 0.41569, 0.18824","0.36341, 0.42546, 0.21823","0.33318, 0.45547, 0.20282","0.32157, 0.38039, 0.19216","0.27231, 0.37211, 0.15269","0.31422, 0.39807, 0.19031","0.34895, 0.44055, 0.21071","0.28046, 0.35484, 0.15506",What is the color of the grass in the previous image?,2022-03-02_10h09.11.959,Representative Color,2021.2.3,Win32,60.14675809,,,,,,
,,,,,,,,0.170833365,0.046296255,1,0,0,2.4927,fourthChoice,3,"0.65167, 0.63033, 0.49287",3,0,3,3,0,1,resources/t4DSC_0016.png,"0.6, 0.58039, 0.4549","0.6564, 0.64356, 0.5619","0.65167, 0.63033, 0.49287","0.60392, 0.59216, 0.50196","0.60392, 0.60392, 0.55686","0.62839, 0.6118, 0.50808","0.62574, 0.60526, 0.47382","0.60418, 0.59802, 0.5294",What is the color of the wine in the previous image?,2022-03-02_10h09.11.959,Representative Color,2021.2.3,Win32,60.14675809,,,,,,
,,,,,,,,-0.070833309,0.191203695,1,0,0,2.0758,firstChoice,0,"0.38431, 0.14902, 0.047059",4,0,4,4,9,1,resources/t4Model-O.png,"0.31765, 0.15686, 0.090196","0.36342, 0.17598, 0.098248","0.55928, 0.25965, 0.13367","0.38431, 0.14902, 0.047059","0.22745, 0.098039, 0.05098","0.27161, 0.12707, 0.072951","0.41066, 0.19954, 0.10607","0.30444, 0.12352, 0.051246",What is the color of the person's skin in the previous image?,2022-03-02_10h09.11.959,Representative Color,2021.2.3,Win32,60.14675809,,,,,,
,,,,,,,,0.084722251,-0.158796316,1,0,0,4.4649,eighthChoice,7,"0.7537, 0.51393, 0.381",2,0,5,5,10,1,resources/t4Model-Ol.png,"0.69412, 0.47451, 0.35294","0.7537, 0.51393, 0.381","0.75045, 0.43076, 0.25995","0.56863, 0.2902, 0.18039","0.52941, 0.28235, 0.15294","0.69412, 0.4, 0.24314","0.79608, 0.58039, 0.45098","0.58431, 0.37255, 0.24706",What is the color of the person's skin in the previous image?,2022-03-02_10h09.11.959,Representative Color,2021.2.3,Win32,60.14675809,,,,,,
,,,,,,,,0.043055583,-0.147222242,1,0,0,4.2149,eighthChoice,7,"0.54118, 0.31373, 0.19216",8,0,6,6,11,1,resources/t4Model-R.png,"0.56863, 0.34902, 0.22353","0.54902, 0.27843, 0.15686","0.62375, 0.38114, 0.24213","0.60078, 0.30229, 0.16803","0.48235, 0.24314, 0.13333","0.65098, 0.41176, 0.28235","0.49412, 0.28627, 0.16471","0.54118, 0.31373, 0.19216",What is the color of the person's skin in the previous image?,2022-03-02_10h09.11.959,Representative Color,2021.2.3,Win32,60.14675809,,,,,,
,,,,,,,,-0.174074053,0.0782407,1,0,0,2.1611,thirdChoice,2,"0.76987, 0.66176, 0.16087",3,0,7,7,15,1,resources/t4green22days1_hdrOff.png,"0.68235, 0.57255, 0.20784","0.72549, 0.62353, 0.15686","0.76987, 0.66176, 0.16087","0.82745, 0.62745, 0.21569","0.70588, 0.53725, 0.12549","0.7451, 0.66275, 0.27451","0.60784, 0.52941, 0.18824","0.65098, 0.51373, 0.18824",What is the color of the tomato in the previous image?,2022-03-02_10h09.11.959,Representative Color,2021.2.3,Win32,60.14675809,,,,,,
,,,,,,,,0.14675929,0.074537024,1,0,0,4.2621,fourthChoice,3,"0.60784, 0.39216, 0.26667",1,0,8,8,3,1,resources/t4Model-A.png,"0.60784, 0.39216, 0.26667","0.59216, 0.31765, 0.21569","0.66468, 0.4273, 0.28886","0.64755, 0.3451, 0.23286","0.72157, 0.47059, 0.33333","0.42353, 0.18824, 0.094118","0.50588, 0.29804, 0.19608","0.56078, 0.3451, 0.23529",What is the color of the person's skin in the previous image?,2022-03-02_10h09.11.959,Representative Color,2021.2.3,Win32,60.14675809,,,,,,
,,,,,,,,0.160648179,-0.074074091,1,0,0,5.2795,sixthChoice,5,"0.88627, 0.50196, 0.23922",6,0,9,9,16,1,resources/t4mysteryLightOr_hdrOff.png,"0.81569, 0.43922, 0.22353","0.8714, 0.46756, 0.23566","0.91794, 0.40919, 0.093393","0.77255, 0.29804, 0.07451","0.9098, 0.55294, 0.30196","0.88627, 0.50196, 0.23922","0.72941, 0.36471, 0.19608","0.81569, 0.36863, 0.13333",What is the color of the tomato in the previous image?,2022-03-02_10h09.11.959,Representative Color,2021.2.3,Win32,60.14675809,,,,,,
,,,,,,,,0.044444472,0.166666657,1,0,0,2.7636,secondChoice,1,"0.68099, 0.43522, 0.27061",7,0,10,10,13,1,resources/t4Model-ll.png,"0.59608, 0.36863, 0.23137","0.66275, 0.4, 0.21961","0.71741, 0.4315, 0.23453","0.65882, 0.43137, 0.29412","0.62936, 0.38426, 0.22577","0.54887, 0.3251, 0.1898","0.68099, 0.43522, 0.27061","0.58137, 0.34036, 0.18379",What is the color of the person's skin in the previous image?,2022-03-02_10h09.11.959,Representative Color,2021.2.3,Win32,60.14675809,,,,,,
,,,,,,,,-0.016203621,0.187962954,1,0,0,4.7121,firstChoice,0,"0.417, 0.55383, 0.14817",6,0,11,11,17,1,resources/t4zpeppers.png,"0.35294, 0.47451, 0.15294","0.48235, 0.63529, 0.13725","0.37942, 0.51262, 0.16068","0.5104, 0.6743, 0.13948","0.41176, 0.59216, 0.11373","0.417, 0.55383, 0.14817","0.38255, 0.53277, 0.1372","0.44713, 0.61369, 0.1255",What is the color of the peppers in the previous image?,2022-03-02_10h09.11.959,Representative Color,2021.2.3,Win32,60.14675809,,,,,,
,,,,,,,,-0.035648066,0.154629619,1,0,0,3.8569,firstChoice,0,"0.61176, 0.36078, 0.23137",7,0,12,12,6,1,resources/t4Model-L.png,"0.52549, 0.2902, 0.16471","0.61569, 0.30588, 0.18039","0.57757, 0.31686, 0.1774","0.66902, 0.33001, 0.19272","0.47843, 0.25098, 0.13333","0.65882, 0.4, 0.25882","0.61176, 0.36078, 0.23137","0.41961, 0.20784, 0.094118",What is the color of the person's skin in the previous image?,2022-03-02_10h09.11.959,Representative Color,2021.2.3,Win32,60.14675809,,,,,,
,,,,,,,,0.079166696,-0.185185206,1,0,0,2.6647,eighthChoice,7,"0.79679, 0.57109, 0.41322",2,0,13,13,7,1,resources/t4Model-LC.png,"0.73725, 0.52941, 0.38431","0.79679, 0.57109, 0.41322","0.66488, 0.37758, 0.19682","0.58431, 0.32157, 0.18431","0.61176, 0.34902, 0.18431","0.68627, 0.47059, 0.32941","0.81569, 0.61176, 0.47843","0.63529, 0.42353, 0.27451",What is the color of the person's skin in the previous image?,2022-03-02_10h09.11.959,Representative Color,2021.2.3,Win32,60.14675809,,,,,,
,,,,,,,,0.038425954,-0.150925945,1,0,0,2.9311,eighthChoice,7,"0.72941, 0.52157, 0.4",1,0,14,14,12,1,resources/t4Model-Y.png,"0.72941, 0.52157, 0.4","0.78972, 0.56355, 0.43105","0.64714, 0.32317, 0.22415","0.62353, 0.34902, 0.22353","0.59216, 0.29804, 0.20784","0.6902, 0.47843, 0.36471","0.80392, 0.60392, 0.49412","0.60784, 0.39216, 0.26275",What is the color of the person's skin in the previous image?,2022-03-02_10h09.11.959,Representative Color,2021.2.3,Win32,60.14675809,,,,,,
,,,,,,,,0.038425954,-0.150925945,1,0,0,1.2317,eighthChoice,7,"0.78605, 0.55541, 0.43138",3,0,15,15,8,1,resources/t4Model-M.png,"0.72549, 0.51373, 0.4","0.65098, 0.35294, 0.25098","0.78605, 0.55541, 0.43138","0.68985, 0.4335, 0.3243","0.6843, 0.46832, 0.35448","0.71971, 0.45365, 0.33937","0.73744, 0.47932, 0.37149","0.71412, 0.48874, 0.36979",What is the color of the person's skin in the previous image?,2022-03-02_10h09.11.959,Representative Color,2021.2.3,Win32,60.14675809,,,,,,
,,,,,,,,-0.039351827,-0.172222242,1,0,0,1.7125,seventhChoice,6,"0.37836, 0.0080068, 0.055199",3,0,16,16,1,1,resources/t4DSC_0021.png,"0.16863, 0.027451, 0.035294","0.34118, 0.023529, 0.05098","0.37836, 0.0080068, 0.055199","0.37255, 0.12157, 0.18431","0.34902, 0.043137, 0.094118","0.41569, 0.23529, 0.29804","0.21569, 0.0078431, 0.019608","0.44314, 0.16863, 0.21961",What is the color of the wine in the previous image?,2022-03-02_10h09.11.959,Representative Color,2021.2.3,Win32,60.14675809,,,,,,
,,,,,,,,-0.080092512,0.195833324,1,0,0,2.1626,firstChoice,0,"0.4549, 0.23137, 0.12157",8,0,17,17,5,1,resources/t4Model-J.png,"0.74118, 0.41961, 0.23529","0.52414, 0.27049, 0.13884","0.79714, 0.44966, 0.25005","0.63529, 0.38824, 0.21569","0.70588, 0.43922, 0.2549","0.64314, 0.33725, 0.18431","0.56863, 0.32157, 0.19216","0.4549, 0.23137, 0.12157",What is the color of the person's skin in the previous image?,2022-03-02_10h09.11.959,Representative Color,2021.2.3,Win32,60.14675809,,,,,,
,,,,,,,,-0.199999979,0.093055543,1,0,0,1.3485,thirdChoice,2,"0.79859, 0.58507, 0.48676",2,0,18,18,4,1,resources/t4Model-B.png,"0.73725, 0.54118, 0.45098","0.79859, 0.58507, 0.48676","0.72531, 0.40323, 0.30464","0.71373, 0.40784, 0.36078","0.8, 0.48235, 0.4","0.68235, 0.44314, 0.33333","0.64706, 0.45882, 0.36471","0.71765, 0.49804, 0.41176",What is the color of the person's skin in the previous image?,2022-03-02_10h09.11.959,Representative Color,2021.2.3,Win32,60.14675809,,,,,,
,,,,,,,,0.163425957,0.054629588,1,0,0,2.4429,fourthChoice,3,"0.39608, 0.058824, 0.070588",1,0,19,19,2,1,resources/t4DSC_0025.png,"0.39608, 0.058824, 0.070588","0.21431, 0.034629, 0.057098","0.43656, 0.051112, 0.07439","0.51373, 0.35294, 0.40784","0.21961, 0.086275, 0.12549","0.33333, 0.019608, 0.031373","0.36078, 0.26667, 0.32157","0.48235, 0.22745, 0.26275",What is the color of the wine in the previous image?,2022-03-02_10h09.11.959,Representative Color,2021.2.3,Win32,60.14675809,,,,,,
,,,,,,,,,,,,,,,,,,,,,,,,,,,,,,,,,2022-03-02_10h09.11.959,Representative Color,2021.2.3,Win32,60.14675809,0,4,4,4,1,resources/trialFull.xlsx
