textboxDate.text,textboxElectronicSignature.text,textboxAge.text,textboxInitials.text,sliderViewConditions.response,sliderColorScientist.response,sliderCVD.response,sliderGenderIdentification.response,mouseResponse.x,mouseResponse.y,mouseResponse.leftButton,mouseResponse.midButton,mouseResponse.rightButton,mouseResponse.time,mouseResponse.clicked_name,mouseResponseLocation,choiceColor,choiceIndex,trialsStimuli.thisRepN,trialsStimuli.thisTrialN,trialsStimuli.thisN,trialsStimuli.thisIndex,trialsStimuli.ran,File_Name,color1,color2,color3,color4,color5,color6,color7,color8,Question,date,expName,psychopyVersion,OS,frameRate,trialsBlock.thisRepN,trialsBlock.thisTrialN,trialsBlock.thisN,trialsBlock.thisIndex,trialsBlock.ran,cond_file
2/22/2022,BC53CC4E06DBE77219BCB958F5609B70B39B3E79,26,,2,1,2,1,0.018518519,0.173148148,1,0,0,0.6965,secondChoice,1,"0.49412, 0.090196, 0.062745",4,0,0,0,0,1,resources/test_wine.png,"0.40784, 0.070588, 0.070588","0.6, 0.043137, 0.035294","0.44887, 0.066156, 0.074042","0.49412, 0.090196, 0.062745","0.53725, 0.011765, 0.0078431","0.30196, 0.066667, 0.062745","0.35427, 0.069613, 0.067232","0.41756, 0.054997, 0.039926",What is the color of the previous image?,2022-02-22_19h31.58.381,Representative Color,2021.2.3,Win32,143.3691756,,,,,,
,,,,,,,,0.052777778,0.182407407,1,0,0,2.685,secondChoice,1,"0.86089, 0.28874, 0.19361",3,0,1,1,3,1,resources/test_tomato_red.png,"0.80784, 0.27451, 0.18431","0.84314, 0.21961, 0.10196","0.86089, 0.28874, 0.19361","0.88235, 0.33333, 0.21176","0.74118, 0.22745, 0.16863","0.79608, 0.21569, 0.12941","0.77439, 0.25104, 0.17647","0.85235, 0.25555, 0.14958",What is the color of the tomato in the previous image?,2022-02-22_19h31.58.381,Representative Color,2021.2.3,Win32,143.3691756,,,,,,
,,,,,,,,-0.042592593,0.168518519,1,0,0,0.7897,firstChoice,0,"0.4549, 0.49412, 0.11765",6,0,2,2,1,1,resources/test_tomato_green.png,"0.50196, 0.52941, 0.19608","0.57255, 0.58431, 0.12549","0.53942, 0.56976, 0.20711","0.6093, 0.62259, 0.12696","0.68627, 0.71373, 0.26667","0.4549, 0.49412, 0.11765","0.61961, 0.64314, 0.26667","0.37647, 0.41569, 0.12941",What is the color of the previous image?,2022-02-22_19h31.58.381,Representative Color,2021.2.3,Win32,143.3691756,,,,,,
,,,,,,,,-0.162962963,0.074074074,1,0,0,1.4366,thirdChoice,2,"0.27689, 0.50341, 0.83205",3,0,3,3,2,1,resources/test_sky.png,"0.26275, 0.46667, 0.76863","0.2, 0.35686, 0.6902","0.27689, 0.50341, 0.83205","0.21961, 0.41176, 0.72157","0.2415, 0.43907, 0.74504","0.21025, 0.38424, 0.70588","0.35291, 0.58434, 0.85098","0.42745, 0.60784, 0.84314",What is the color of the previous image?,2022-02-22_19h31.58.381,Representative Color,2021.2.3,Win32,143.3691756,,,,,,
,,,,,,,,,,,,,,,,,,,,,,,,,,,,,,,,,2022-02-22_19h31.58.381,Representative Color,2021.2.3,Win32,143.3691756,0,0,0,0,1,resources/training.xlsx
,,,,,,,,-0.198148148,-0.049074074,1,0,0,1.922,fifthChoice,4,"0.62839, 0.6118, 0.50808",6,0,0,0,0,1,resources/t1DSC_0016.png,"0.6, 0.58039, 0.4549","0.6564, 0.64356, 0.5619","0.65167, 0.63033, 0.49287","0.60392, 0.59216, 0.50196","0.60392, 0.60392, 0.55686","0.62839, 0.6118, 0.50808","0.62574, 0.60526, 0.47382","0.60418, 0.59802, 0.5294",What is the color of the previous image?,2022-02-22_19h31.58.381,Representative Color,2021.2.3,Win32,143.3691756,,,,,,
,,,,,,,,-0.150925926,0.049074074,1,0,0,1.5473,thirdChoice,2,"0.69412, 0.47451, 0.35294",1,0,1,1,10,1,resources/t1Model-Ol.png,"0.69412, 0.47451, 0.35294","0.7537, 0.51393, 0.381","0.75045, 0.43076, 0.25995","0.56863, 0.2902, 0.18039","0.52941, 0.28235, 0.15294","0.69412, 0.4, 0.24314","0.79608, 0.58039, 0.45098","0.58431, 0.37255, 0.24706",What is the color of the previous image?,2022-02-22_19h31.58.381,Representative Color,2021.2.3,Win32,143.3691756,,,,,,
,,,,,,,,0.194444444,0.050925926,1,0,0,0.8323,fourthChoice,3,"0.61176, 0.36078, 0.23137",7,0,2,2,6,1,resources/t1Model-L.png,"0.52549, 0.2902, 0.16471","0.61569, 0.30588, 0.18039","0.57757, 0.31686, 0.1774","0.66902, 0.33001, 0.19272","0.47843, 0.25098, 0.13333","0.65882, 0.4, 0.25882","0.61176, 0.36078, 0.23137","0.41961, 0.20784, 0.094118",What is the color of the previous image?,2022-02-22_19h31.58.381,Representative Color,2021.2.3,Win32,143.3691756,,,,,,
,,,,,,,,-0.064814815,0.165740741,1,0,0,1.3881,firstChoice,0,"0.50889, 0.63012, 0.83447",7,0,3,3,18,1,resources/t1sky.png,"0.38039, 0.50588, 0.72941","0.60278, 0.71367, 0.87522","0.41001, 0.54883, 0.79353","0.54118, 0.65098, 0.81961","0.48627, 0.6, 0.78824","0.39516, 0.52728, 0.76134","0.50889, 0.63012, 0.83447","0.4494, 0.57426, 0.79097",What is the color of the previous image?,2022-02-22_19h31.58.381,Representative Color,2021.2.3,Win32,143.3691756,,,,,,
,,,,,,,,0.192592593,0.056481481,1,0,0,2.3256,fourthChoice,3,"0.72549, 0.62353, 0.15686",2,0,4,4,15,1,resources/t1green22days1_hdrOff.png,"0.68235, 0.57255, 0.20784","0.72549, 0.62353, 0.15686","0.76987, 0.66176, 0.16087","0.82745, 0.62745, 0.21569","0.70588, 0.53725, 0.12549","0.7451, 0.66275, 0.27451","0.60784, 0.52941, 0.18824","0.65098, 0.51373, 0.18824",What is the color of the previous image?,2022-02-22_19h31.58.381,Representative Color,2021.2.3,Win32,143.3691756,,,,,,
,,,,,,,,0.081481481,0.152777778,1,0,0,1.9089,secondChoice,1,"0.41066, 0.19954, 0.10607",7,0,5,5,9,1,resources/t1Model-O.png,"0.31765, 0.15686, 0.090196","0.36342, 0.17598, 0.098248","0.55928, 0.25965, 0.13367","0.38431, 0.14902, 0.047059","0.22745, 0.098039, 0.05098","0.27161, 0.12707, 0.072951","0.41066, 0.19954, 0.10607","0.30444, 0.12352, 0.051246",What is the color of the previous image?,2022-02-22_19h31.58.381,Representative Color,2021.2.3,Win32,143.3691756,,,,,,
,,,,,,,,0.185185185,0.067592593,1,0,0,0.853,fourthChoice,3,"0.66468, 0.4273, 0.28886",3,0,6,6,3,1,resources/t1Model-A.png,"0.60784, 0.39216, 0.26667","0.59216, 0.31765, 0.21569","0.66468, 0.4273, 0.28886","0.64755, 0.3451, 0.23286","0.72157, 0.47059, 0.33333","0.42353, 0.18824, 0.094118","0.50588, 0.29804, 0.19608","0.56078, 0.3451, 0.23529",What is the color of the previous image?,2022-02-22_19h31.58.381,Representative Color,2021.2.3,Win32,143.3691756,,,,,,
,,,,,,,,0.185185185,0.067592593,1,0,0,0.999,fourthChoice,3,"0.91794, 0.40919, 0.093393",3,0,7,7,16,1,resources/t1mysteryLightOr_hdrOff.png,"0.81569, 0.43922, 0.22353","0.8714, 0.46756, 0.23566","0.91794, 0.40919, 0.093393","0.77255, 0.29804, 0.07451","0.9098, 0.55294, 0.30196","0.88627, 0.50196, 0.23922","0.72941, 0.36471, 0.19608","0.81569, 0.36863, 0.13333",What is the color of the previous image?,2022-02-22_19h31.58.381,Representative Color,2021.2.3,Win32,143.3691756,,,,,,
,,,,,,,,-0.144444444,0.044444444,1,0,0,1.1726,thirdChoice,2,"0.48425, 0.24604, 0.13103",2,0,8,8,14,1,resources/t1Model-yl.png,"0.43529, 0.22353, 0.12157","0.48425, 0.24604, 0.13103","0.74365, 0.40389, 0.19507","0.56078, 0.26667, 0.1451","0.35294, 0.16078, 0.070588","0.6, 0.35294, 0.22353","0.55294, 0.31373, 0.19216","0.30588, 0.12549, 0.043137",What is the color of the previous image?,2022-02-22_19h31.58.381,Representative Color,2021.2.3,Win32,143.3691756,,,,,,
,,,,,,,,0.214814815,0.061111111,1,0,0,1.1934,fourthChoice,3,"0.62936, 0.38426, 0.22577",5,0,9,9,13,1,resources/t1Model-ll.png,"0.59608, 0.36863, 0.23137","0.66275, 0.4, 0.21961","0.71741, 0.4315, 0.23453","0.65882, 0.43137, 0.29412","0.62936, 0.38426, 0.22577","0.54887, 0.3251, 0.1898","0.68099, 0.43522, 0.27061","0.58137, 0.34036, 0.18379",What is the color of the previous image?,2022-02-22_19h31.58.381,Representative Color,2021.2.3,Win32,143.3691756,,,,,,
,,,,,,,,-0.035185185,0.164814815,1,0,0,0.9851,firstChoice,0,"0.33318, 0.45547, 0.20282",3,0,10,10,19,1,resources/t1zgrass.png,"0.30588, 0.41569, 0.18824","0.36341, 0.42546, 0.21823","0.33318, 0.45547, 0.20282","0.32157, 0.38039, 0.19216","0.27231, 0.37211, 0.15269","0.31422, 0.39807, 0.19031","0.34895, 0.44055, 0.21071","0.28046, 0.35484, 0.15506",What is the color of the previous image?,2022-02-22_19h31.58.381,Representative Color,2021.2.3,Win32,143.3691756,,,,,,
,,,,,,,,-0.15,-0.04537037,1,0,0,1.3601,fifthChoice,4,"0.8, 0.48235, 0.4",5,0,11,11,4,1,resources/t1Model-B.png,"0.73725, 0.54118, 0.45098","0.79859, 0.58507, 0.48676","0.72531, 0.40323, 0.30464","0.71373, 0.40784, 0.36078","0.8, 0.48235, 0.4","0.68235, 0.44314, 0.33333","0.64706, 0.45882, 0.36471","0.71765, 0.49804, 0.41176",What is the color of the previous image?,2022-02-22_19h31.58.381,Representative Color,2021.2.3,Win32,143.3691756,,,,,,
,,,,,,,,-0.062037037,-0.163888889,1,0,0,1.1302,seventhChoice,6,"0.48235, 0.63529, 0.13725",2,0,12,12,17,1,resources/t1zpeppers.png,"0.35294, 0.47451, 0.15294","0.48235, 0.63529, 0.13725","0.37942, 0.51262, 0.16068","0.5104, 0.6743, 0.13948","0.41176, 0.59216, 0.11373","0.417, 0.55383, 0.14817","0.38255, 0.53277, 0.1372","0.44713, 0.61369, 0.1255",What is the color of the previous image?,2022-02-22_19h31.58.381,Representative Color,2021.2.3,Win32,143.3691756,,,,,,
,,,,,,,,0.2,0.043518519,1,0,0,0.8254,fourthChoice,3,"0.78605, 0.55541, 0.43138",3,0,13,13,8,1,resources/t1Model-M.png,"0.72549, 0.51373, 0.4","0.65098, 0.35294, 0.25098","0.78605, 0.55541, 0.43138","0.68985, 0.4335, 0.3243","0.6843, 0.46832, 0.35448","0.71971, 0.45365, 0.33937","0.73744, 0.47932, 0.37149","0.71412, 0.48874, 0.36979",What is the color of the previous image?,2022-02-22_19h31.58.381,Representative Color,2021.2.3,Win32,143.3691756,,,,,,
,,,,,,,,0.078703704,0.15462963,1,0,0,0.9019,secondChoice,1,"0.73725, 0.52941, 0.38431",1,0,14,14,7,1,resources/t1Model-LC.png,"0.73725, 0.52941, 0.38431","0.79679, 0.57109, 0.41322","0.66488, 0.37758, 0.19682","0.58431, 0.32157, 0.18431","0.61176, 0.34902, 0.18431","0.68627, 0.47059, 0.32941","0.81569, 0.61176, 0.47843","0.63529, 0.42353, 0.27451",What is the color of the previous image?,2022-02-22_19h31.58.381,Representative Color,2021.2.3,Win32,143.3691756,,,,,,
,,,,,,,,0.062037037,-0.151851852,1,0,0,1.2144,eighthChoice,7,"0.21569, 0.0078431, 0.019608",7,0,15,15,1,1,resources/t1DSC_0021.png,"0.16863, 0.027451, 0.035294","0.34118, 0.023529, 0.05098","0.37836, 0.0080068, 0.055199","0.37255, 0.12157, 0.18431","0.34902, 0.043137, 0.094118","0.41569, 0.23529, 0.29804","0.21569, 0.0078431, 0.019608","0.44314, 0.16863, 0.21961",What is the color of the previous image?,2022-02-22_19h31.58.381,Representative Color,2021.2.3,Win32,143.3691756,,,,,,
,,,,,,,,0.17037037,-0.055555556,1,0,0,3.4711,sixthChoice,5,"0.33333, 0.019608, 0.031373",6,0,16,16,2,1,resources/t1DSC_0025.png,"0.39608, 0.058824, 0.070588","0.21431, 0.034629, 0.057098","0.43656, 0.051112, 0.07439","0.51373, 0.35294, 0.40784","0.21961, 0.086275, 0.12549","0.33333, 0.019608, 0.031373","0.36078, 0.26667, 0.32157","0.48235, 0.22745, 0.26275",What is the color of the previous image?,2022-02-22_19h31.58.381,Representative Color,2021.2.3,Win32,143.3691756,,,,,,
,,,,,,,,-0.156481481,0.062037037,1,0,0,1.0823,thirdChoice,2,"0.56863, 0.32157, 0.19216",7,0,17,17,5,1,resources/t1Model-J.png,"0.74118, 0.41961, 0.23529","0.52414, 0.27049, 0.13884","0.79714, 0.44966, 0.25005","0.63529, 0.38824, 0.21569","0.70588, 0.43922, 0.2549","0.64314, 0.33725, 0.18431","0.56863, 0.32157, 0.19216","0.4549, 0.23137, 0.12157",What is the color of the previous image?,2022-02-22_19h31.58.381,Representative Color,2021.2.3,Win32,143.3691756,,,,,,
,,,,,,,,0.187962963,0.067592593,1,0,0,0.882,fourthChoice,3,"0.56863, 0.34902, 0.22353",1,0,18,18,11,1,resources/t1Model-R.png,"0.56863, 0.34902, 0.22353","0.54902, 0.27843, 0.15686","0.62375, 0.38114, 0.24213","0.60078, 0.30229, 0.16803","0.48235, 0.24314, 0.13333","0.65098, 0.41176, 0.28235","0.49412, 0.28627, 0.16471","0.54118, 0.31373, 0.19216",What is the color of the previous image?,2022-02-22_19h31.58.381,Representative Color,2021.2.3,Win32,143.3691756,,,,,,
,,,,,,,,-0.14537037,0.05,1,0,0,0.9999,thirdChoice,2,"0.80392, 0.60392, 0.49412",7,0,19,19,12,1,resources/t1Model-Y.png,"0.72941, 0.52157, 0.4","0.78972, 0.56355, 0.43105","0.64714, 0.32317, 0.22415","0.62353, 0.34902, 0.22353","0.59216, 0.29804, 0.20784","0.6902, 0.47843, 0.36471","0.80392, 0.60392, 0.49412","0.60784, 0.39216, 0.26275",What is the color of the previous image?,2022-02-22_19h31.58.381,Representative Color,2021.2.3,Win32,143.3691756,,,,,,
,,,,,,,,,,,,,,,,,,,,,,,,,,,,,,,,,2022-02-22_19h31.58.381,Representative Color,2021.2.3,Win32,143.3691756,0,1,1,1,1,resources/trialScramble.xlsx
,,,,,,,,0.17962963,-0.083333333,1,0,0,1.2429,sixthChoice,5,"0.56863, 0.34902, 0.22353",1,0,0,0,11,1,resources/t2Model-R.png,"0.56863, 0.34902, 0.22353","0.54902, 0.27843, 0.15686","0.62375, 0.38114, 0.24213","0.60078, 0.30229, 0.16803","0.48235, 0.24314, 0.13333","0.65098, 0.41176, 0.28235","0.49412, 0.28627, 0.16471","0.54118, 0.31373, 0.19216",What is the color of the previous image?,2022-02-22_19h31.58.381,Representative Color,2021.2.3,Win32,143.3691756,,,,,,
,,,,,,,,0.212037037,0.04537037,1,0,0,2.9097,fourthChoice,3,"0.56078, 0.26667, 0.1451",4,0,1,1,14,1,resources/t2Model-yl.png,"0.43529, 0.22353, 0.12157","0.48425, 0.24604, 0.13103","0.74365, 0.40389, 0.19507","0.56078, 0.26667, 0.1451","0.35294, 0.16078, 0.070588","0.6, 0.35294, 0.22353","0.55294, 0.31373, 0.19216","0.30588, 0.12549, 0.043137",What is the color of the previous image?,2022-02-22_19h31.58.381,Representative Color,2021.2.3,Win32,143.3691756,,,,,,
,,,,,,,,0.147222222,0.060185185,1,0,0,3.6369,fourthChoice,3,"0.34902, 0.043137, 0.094118",5,0,2,2,1,1,resources/t2DSC_0021.png,"0.16863, 0.027451, 0.035294","0.34118, 0.023529, 0.05098","0.37836, 0.0080068, 0.055199","0.37255, 0.12157, 0.18431","0.34902, 0.043137, 0.094118","0.41569, 0.23529, 0.29804","0.21569, 0.0078431, 0.019608","0.44314, 0.16863, 0.21961",What is the color of the previous image?,2022-02-22_19h31.58.381,Representative Color,2021.2.3,Win32,143.3691756,,,,,,
,,,,,,,,-0.071296296,-0.174074074,1,0,0,1.6658,seventhChoice,6,"0.66275, 0.4, 0.21961",2,0,3,3,13,1,resources/t2Model-ll.png,"0.59608, 0.36863, 0.23137","0.66275, 0.4, 0.21961","0.71741, 0.4315, 0.23453","0.65882, 0.43137, 0.29412","0.62936, 0.38426, 0.22577","0.54887, 0.3251, 0.1898","0.68099, 0.43522, 0.27061","0.58137, 0.34036, 0.18379",What is the color of the previous image?,2022-02-22_19h31.58.381,Representative Color,2021.2.3,Win32,143.3691756,,,,,,
,,,,,,,,-0.064814815,0.178703704,1,0,0,2.7069,firstChoice,0,"0.30588, 0.41569, 0.18824",1,0,4,4,19,1,resources/t2zgrass.png,"0.30588, 0.41569, 0.18824","0.36341, 0.42546, 0.21823","0.33318, 0.45547, 0.20282","0.32157, 0.38039, 0.19216","0.27231, 0.37211, 0.15269","0.31422, 0.39807, 0.19031","0.34895, 0.44055, 0.21071","0.28046, 0.35484, 0.15506",What is the color of the previous image?,2022-02-22_19h31.58.381,Representative Color,2021.2.3,Win32,143.3691756,,,,,,
,,,,,,,,0.063888889,0.164814815,1,0,0,1.1586,secondChoice,1,"0.41001, 0.54883, 0.79353",3,0,5,5,18,1,resources/t2sky.png,"0.38039, 0.50588, 0.72941","0.60278, 0.71367, 0.87522","0.41001, 0.54883, 0.79353","0.54118, 0.65098, 0.81961","0.48627, 0.6, 0.78824","0.39516, 0.52728, 0.76134","0.50889, 0.63012, 0.83447","0.4494, 0.57426, 0.79097",What is the color of the previous image?,2022-02-22_19h31.58.381,Representative Color,2021.2.3,Win32,143.3691756,,,,,,
,,,,,,,,-0.068518519,0.168518519,1,0,0,2.1727,firstChoice,0,"0.6843, 0.46832, 0.35448",5,0,6,6,8,1,resources/t2Model-M.png,"0.72549, 0.51373, 0.4","0.65098, 0.35294, 0.25098","0.78605, 0.55541, 0.43138","0.68985, 0.4335, 0.3243","0.6843, 0.46832, 0.35448","0.71971, 0.45365, 0.33937","0.73744, 0.47932, 0.37149","0.71412, 0.48874, 0.36979",What is the color of the previous image?,2022-02-22_19h31.58.381,Representative Color,2021.2.3,Win32,143.3691756,,,,,,
,,,,,,,,0.189814815,-0.064814815,1,0,0,2.0266,sixthChoice,5,"0.66468, 0.4273, 0.28886",3,0,7,7,3,1,resources/t2Model-A.png,"0.60784, 0.39216, 0.26667","0.59216, 0.31765, 0.21569","0.66468, 0.4273, 0.28886","0.64755, 0.3451, 0.23286","0.72157, 0.47059, 0.33333","0.42353, 0.18824, 0.094118","0.50588, 0.29804, 0.19608","0.56078, 0.3451, 0.23529",What is the color of the previous image?,2022-02-22_19h31.58.381,Representative Color,2021.2.3,Win32,143.3691756,,,,,,
,,,,,,,,-0.164814815,-0.050925926,1,0,0,2.0126,fifthChoice,4,"0.76987, 0.66176, 0.16087",3,0,8,8,15,1,resources/t2green22days1_hdrOff.png,"0.68235, 0.57255, 0.20784","0.72549, 0.62353, 0.15686","0.76987, 0.66176, 0.16087","0.82745, 0.62745, 0.21569","0.70588, 0.53725, 0.12549","0.7451, 0.66275, 0.27451","0.60784, 0.52941, 0.18824","0.65098, 0.51373, 0.18824",What is the color of the previous image?,2022-02-22_19h31.58.381,Representative Color,2021.2.3,Win32,143.3691756,,,,,,
,,,,,,,,-0.036111111,0.155555556,1,0,0,1.2421,firstChoice,0,"0.52414, 0.27049, 0.13884",2,0,9,9,5,1,resources/t2Model-J.png,"0.74118, 0.41961, 0.23529","0.52414, 0.27049, 0.13884","0.79714, 0.44966, 0.25005","0.63529, 0.38824, 0.21569","0.70588, 0.43922, 0.2549","0.64314, 0.33725, 0.18431","0.56863, 0.32157, 0.19216","0.4549, 0.23137, 0.12157",What is the color of the previous image?,2022-02-22_19h31.58.381,Representative Color,2021.2.3,Win32,143.3691756,,,,,,
,,,,,,,,0.035185185,0.175,1,0,0,0.9437,secondChoice,1,"0.41066, 0.19954, 0.10607",7,0,10,10,9,1,resources/t2Model-O.png,"0.31765, 0.15686, 0.090196","0.36342, 0.17598, 0.098248","0.55928, 0.25965, 0.13367","0.38431, 0.14902, 0.047059","0.22745, 0.098039, 0.05098","0.27161, 0.12707, 0.072951","0.41066, 0.19954, 0.10607","0.30444, 0.12352, 0.051246",What is the color of the previous image?,2022-02-22_19h31.58.381,Representative Color,2021.2.3,Win32,143.3691756,,,,,,
,,,,,,,,-0.167592593,0.061111111,1,0,0,1.5057,thirdChoice,2,"0.72941, 0.52157, 0.4",1,0,11,11,12,1,resources/t2Model-Y.png,"0.72941, 0.52157, 0.4","0.78972, 0.56355, 0.43105","0.64714, 0.32317, 0.22415","0.62353, 0.34902, 0.22353","0.59216, 0.29804, 0.20784","0.6902, 0.47843, 0.36471","0.80392, 0.60392, 0.49412","0.60784, 0.39216, 0.26275",What is the color of the previous image?,2022-02-22_19h31.58.381,Representative Color,2021.2.3,Win32,143.3691756,,,,,,
,,,,,,,,0.209259259,0.072222222,1,0,0,0.8672,fourthChoice,3,"0.69412, 0.47451, 0.35294",1,0,12,12,10,1,resources/t2Model-Ol.png,"0.69412, 0.47451, 0.35294","0.7537, 0.51393, 0.381","0.75045, 0.43076, 0.25995","0.56863, 0.2902, 0.18039","0.52941, 0.28235, 0.15294","0.69412, 0.4, 0.24314","0.79608, 0.58039, 0.45098","0.58431, 0.37255, 0.24706",What is the color of the previous image?,2022-02-22_19h31.58.381,Representative Color,2021.2.3,Win32,143.3691756,,,,,,
,,,,,,,,0.196296296,0.061111111,1,0,0,0.9229,fourthChoice,3,"0.73725, 0.52941, 0.38431",1,0,13,13,7,1,resources/t2Model-LC.png,"0.73725, 0.52941, 0.38431","0.79679, 0.57109, 0.41322","0.66488, 0.37758, 0.19682","0.58431, 0.32157, 0.18431","0.61176, 0.34902, 0.18431","0.68627, 0.47059, 0.32941","0.81569, 0.61176, 0.47843","0.63529, 0.42353, 0.27451",What is the color of the previous image?,2022-02-22_19h31.58.381,Representative Color,2021.2.3,Win32,143.3691756,,,,,,
,,,,,,,,0.05462963,0.158333333,1,0,0,2.1309,secondChoice,1,"0.65882, 0.4, 0.25882",6,0,14,14,6,1,resources/t2Model-L.png,"0.52549, 0.2902, 0.16471","0.61569, 0.30588, 0.18039","0.57757, 0.31686, 0.1774","0.66902, 0.33001, 0.19272","0.47843, 0.25098, 0.13333","0.65882, 0.4, 0.25882","0.61176, 0.36078, 0.23137","0.41961, 0.20784, 0.094118",What is the color of the previous image?,2022-02-22_19h31.58.381,Representative Color,2021.2.3,Win32,143.3691756,,,,,,
,,,,,,,,-0.031481481,0.156481481,1,0,0,2.3875,firstChoice,0,"0.79859, 0.58507, 0.48676",2,0,15,15,4,1,resources/t2Model-B.png,"0.73725, 0.54118, 0.45098","0.79859, 0.58507, 0.48676","0.72531, 0.40323, 0.30464","0.71373, 0.40784, 0.36078","0.8, 0.48235, 0.4","0.68235, 0.44314, 0.33333","0.64706, 0.45882, 0.36471","0.71765, 0.49804, 0.41176",What is the color of the previous image?,2022-02-22_19h31.58.381,Representative Color,2021.2.3,Win32,143.3691756,,,,,,
,,,,,,,,0.146296296,-0.083333333,1,0,0,1.7838,sixthChoice,5,"0.44713, 0.61369, 0.1255",8,0,16,16,17,1,resources/t2zpeppers.png,"0.35294, 0.47451, 0.15294","0.48235, 0.63529, 0.13725","0.37942, 0.51262, 0.16068","0.5104, 0.6743, 0.13948","0.41176, 0.59216, 0.11373","0.417, 0.55383, 0.14817","0.38255, 0.53277, 0.1372","0.44713, 0.61369, 0.1255",What is the color of the previous image?,2022-02-22_19h31.58.381,Representative Color,2021.2.3,Win32,143.3691756,,,,,,
,,,,,,,,-0.161111111,-0.034259259,1,0,0,1.5615,fifthChoice,4,"0.65167, 0.63033, 0.49287",3,0,17,17,0,1,resources/t2DSC_0016.png,"0.6, 0.58039, 0.4549","0.6564, 0.64356, 0.5619","0.65167, 0.63033, 0.49287","0.60392, 0.59216, 0.50196","0.60392, 0.60392, 0.55686","0.62839, 0.6118, 0.50808","0.62574, 0.60526, 0.47382","0.60418, 0.59802, 0.5294",What is the color of the previous image?,2022-02-22_19h31.58.381,Representative Color,2021.2.3,Win32,143.3691756,,,,,,
,,,,,,,,0.172222222,-0.057407407,1,0,0,2.61,sixthChoice,5,"0.81569, 0.36863, 0.13333",8,0,18,18,16,1,resources/t2mysteryLightOr_hdrOff.png,"0.81569, 0.43922, 0.22353","0.8714, 0.46756, 0.23566","0.91794, 0.40919, 0.093393","0.77255, 0.29804, 0.07451","0.9098, 0.55294, 0.30196","0.88627, 0.50196, 0.23922","0.72941, 0.36471, 0.19608","0.81569, 0.36863, 0.13333",What is the color of the previous image?,2022-02-22_19h31.58.381,Representative Color,2021.2.3,Win32,143.3691756,,,,,,
,,,,,,,,-0.05462963,0.17037037,1,0,0,1.38,firstChoice,0,"0.39608, 0.058824, 0.070588",1,0,19,19,2,1,resources/t2DSC_0025.png,"0.39608, 0.058824, 0.070588","0.21431, 0.034629, 0.057098","0.43656, 0.051112, 0.07439","0.51373, 0.35294, 0.40784","0.21961, 0.086275, 0.12549","0.33333, 0.019608, 0.031373","0.36078, 0.26667, 0.32157","0.48235, 0.22745, 0.26275",What is the color of the previous image?,2022-02-22_19h31.58.381,Representative Color,2021.2.3,Win32,143.3691756,,,,,,
,,,,,,,,,,,,,,,,,,,,,,,,,,,,,,,,,2022-02-22_19h31.58.381,Representative Color,2021.2.3,Win32,143.3691756,0,2,2,2,1,resources/trialSixteen.xlsx
,,,,,,,,0.059259259,0.159259259,1,0,0,1.5199,secondChoice,1,"0.79859, 0.58507, 0.48676",2,0,0,0,4,1,resources/t3Model-B.png,"0.73725, 0.54118, 0.45098","0.79859, 0.58507, 0.48676","0.72531, 0.40323, 0.30464","0.71373, 0.40784, 0.36078","0.8, 0.48235, 0.4","0.68235, 0.44314, 0.33333","0.64706, 0.45882, 0.36471","0.71765, 0.49804, 0.41176",What is the color of the previous image?,2022-02-22_19h31.58.381,Representative Color,2021.2.3,Win32,143.3691756,,,,,,
,,,,,,,,0.176851852,0.075925926,1,0,0,1.0404,fourthChoice,3,"0.52414, 0.27049, 0.13884",2,0,1,1,5,1,resources/t3Model-J.png,"0.74118, 0.41961, 0.23529","0.52414, 0.27049, 0.13884","0.79714, 0.44966, 0.25005","0.63529, 0.38824, 0.21569","0.70588, 0.43922, 0.2549","0.64314, 0.33725, 0.18431","0.56863, 0.32157, 0.19216","0.4549, 0.23137, 0.12157",What is the color of the previous image?,2022-02-22_19h31.58.381,Representative Color,2021.2.3,Win32,143.3691756,,,,,,
,,,,,,,,0.033333333,0.149074074,1,0,0,1.8601,secondChoice,1,"0.65098, 0.41176, 0.28235",6,0,2,2,11,1,resources/t3Model-R.png,"0.56863, 0.34902, 0.22353","0.54902, 0.27843, 0.15686","0.62375, 0.38114, 0.24213","0.60078, 0.30229, 0.16803","0.48235, 0.24314, 0.13333","0.65098, 0.41176, 0.28235","0.49412, 0.28627, 0.16471","0.54118, 0.31373, 0.19216",What is the color of the previous image?,2022-02-22_19h31.58.381,Representative Color,2021.2.3,Win32,143.3691756,,,,,,
,,,,,,,,0.053703704,-0.152777778,1,0,0,1.7628,eighthChoice,7,"0.72157, 0.47059, 0.33333",5,0,3,3,3,1,resources/t3Model-A.png,"0.60784, 0.39216, 0.26667","0.59216, 0.31765, 0.21569","0.66468, 0.4273, 0.28886","0.64755, 0.3451, 0.23286","0.72157, 0.47059, 0.33333","0.42353, 0.18824, 0.094118","0.50588, 0.29804, 0.19608","0.56078, 0.3451, 0.23529",What is the color of the previous image?,2022-02-22_19h31.58.381,Representative Color,2021.2.3,Win32,143.3691756,,,,,,
,,,,,,,,0.069444444,0.152777778,1,0,0,0.8602,secondChoice,1,"0.68099, 0.43522, 0.27061",7,0,4,4,13,1,resources/t3Model-ll.png,"0.59608, 0.36863, 0.23137","0.66275, 0.4, 0.21961","0.71741, 0.4315, 0.23453","0.65882, 0.43137, 0.29412","0.62936, 0.38426, 0.22577","0.54887, 0.3251, 0.1898","0.68099, 0.43522, 0.27061","0.58137, 0.34036, 0.18379",What is the color of the previous image?,2022-02-22_19h31.58.381,Representative Color,2021.2.3,Win32,143.3691756,,,,,,
,,,,,,,,-0.168518519,0.042592593,1,0,0,0.9713,thirdChoice,2,"0.65882, 0.4, 0.25882",6,0,5,5,6,1,resources/t3Model-L.png,"0.52549, 0.2902, 0.16471","0.61569, 0.30588, 0.18039","0.57757, 0.31686, 0.1774","0.66902, 0.33001, 0.19272","0.47843, 0.25098, 0.13333","0.65882, 0.4, 0.25882","0.61176, 0.36078, 0.23137","0.41961, 0.20784, 0.094118",What is the color of the previous image?,2022-02-22_19h31.58.381,Representative Color,2021.2.3,Win32,143.3691756,,,,,,
,,,,,,,,-0.040740741,-0.168518519,1,0,0,5.2698,seventhChoice,6,"0.77255, 0.29804, 0.07451",4,0,6,6,16,1,resources/t3mysteryLightOr_hdrOff.png,"0.81569, 0.43922, 0.22353","0.8714, 0.46756, 0.23566","0.91794, 0.40919, 0.093393","0.77255, 0.29804, 0.07451","0.9098, 0.55294, 0.30196","0.88627, 0.50196, 0.23922","0.72941, 0.36471, 0.19608","0.81569, 0.36863, 0.13333",What is the color of the previous image?,2022-02-22_19h31.58.381,Representative Color,2021.2.3,Win32,143.3691756,,,,,,
,,,,,,,,0.075925926,0.14537037,1,0,0,1.6586,secondChoice,1,"0.30444, 0.12352, 0.051246",8,0,7,7,9,1,resources/t3Model-O.png,"0.31765, 0.15686, 0.090196","0.36342, 0.17598, 0.098248","0.55928, 0.25965, 0.13367","0.38431, 0.14902, 0.047059","0.22745, 0.098039, 0.05098","0.27161, 0.12707, 0.072951","0.41066, 0.19954, 0.10607","0.30444, 0.12352, 0.051246",What is the color of the previous image?,2022-02-22_19h31.58.381,Representative Color,2021.2.3,Win32,143.3691756,,,,,,
,,,,,,,,0.068518519,0.162037037,1,0,0,1.8473,secondChoice,1,"0.48235, 0.63529, 0.13725",2,0,8,8,17,1,resources/t3zpeppers.png,"0.35294, 0.47451, 0.15294","0.48235, 0.63529, 0.13725","0.37942, 0.51262, 0.16068","0.5104, 0.6743, 0.13948","0.41176, 0.59216, 0.11373","0.417, 0.55383, 0.14817","0.38255, 0.53277, 0.1372","0.44713, 0.61369, 0.1255",What is the color of the previous image?,2022-02-22_19h31.58.381,Representative Color,2021.2.3,Win32,143.3691756,,,,,,
,,,,,,,,0.097222222,0.162962963,1,0,0,1.2636,secondChoice,1,"0.79679, 0.57109, 0.41322",2,0,9,9,7,1,resources/t3Model-LC.png,"0.73725, 0.52941, 0.38431","0.79679, 0.57109, 0.41322","0.66488, 0.37758, 0.19682","0.58431, 0.32157, 0.18431","0.61176, 0.34902, 0.18431","0.68627, 0.47059, 0.32941","0.81569, 0.61176, 0.47843","0.63529, 0.42353, 0.27451",What is the color of the previous image?,2022-02-22_19h31.58.381,Representative Color,2021.2.3,Win32,143.3691756,,,,,,
,,,,,,,,-0.151851852,0.058333333,1,0,0,1.9506,thirdChoice,2,"0.71412, 0.48874, 0.36979",8,0,10,10,8,1,resources/t3Model-M.png,"0.72549, 0.51373, 0.4","0.65098, 0.35294, 0.25098","0.78605, 0.55541, 0.43138","0.68985, 0.4335, 0.3243","0.6843, 0.46832, 0.35448","0.71971, 0.45365, 0.33937","0.73744, 0.47932, 0.37149","0.71412, 0.48874, 0.36979",What is the color of the previous image?,2022-02-22_19h31.58.381,Representative Color,2021.2.3,Win32,143.3691756,,,,,,
,,,,,,,,-0.168518519,0.064814815,1,0,0,1.0267,thirdChoice,2,"0.39516, 0.52728, 0.76134",6,0,11,11,18,1,resources/t3sky.png,"0.38039, 0.50588, 0.72941","0.60278, 0.71367, 0.87522","0.41001, 0.54883, 0.79353","0.54118, 0.65098, 0.81961","0.48627, 0.6, 0.78824","0.39516, 0.52728, 0.76134","0.50889, 0.63012, 0.83447","0.4494, 0.57426, 0.79097",What is the color of the previous image?,2022-02-22_19h31.58.381,Representative Color,2021.2.3,Win32,143.3691756,,,,,,
,,,,,,,,0.064814815,0.151851852,1,0,0,0.7701,secondChoice,1,"0.43529, 0.22353, 0.12157",1,0,12,12,14,1,resources/t3Model-yl.png,"0.43529, 0.22353, 0.12157","0.48425, 0.24604, 0.13103","0.74365, 0.40389, 0.19507","0.56078, 0.26667, 0.1451","0.35294, 0.16078, 0.070588","0.6, 0.35294, 0.22353","0.55294, 0.31373, 0.19216","0.30588, 0.12549, 0.043137",What is the color of the previous image?,2022-02-22_19h31.58.381,Representative Color,2021.2.3,Win32,143.3691756,,,,,,
,,,,,,,,0.199074074,0.087037037,1,0,0,0.8671,fourthChoice,3,"0.39608, 0.058824, 0.070588",1,0,13,13,2,1,resources/t3DSC_0025.png,"0.39608, 0.058824, 0.070588","0.21431, 0.034629, 0.057098","0.43656, 0.051112, 0.07439","0.51373, 0.35294, 0.40784","0.21961, 0.086275, 0.12549","0.33333, 0.019608, 0.031373","0.36078, 0.26667, 0.32157","0.48235, 0.22745, 0.26275",What is the color of the previous image?,2022-02-22_19h31.58.381,Representative Color,2021.2.3,Win32,143.3691756,,,,,,
,,,,,,,,-0.211111111,0.067592593,1,0,0,1.0823,thirdChoice,2,"0.65167, 0.63033, 0.49287",3,0,14,14,0,1,resources/t3DSC_0016.png,"0.6, 0.58039, 0.4549","0.6564, 0.64356, 0.5619","0.65167, 0.63033, 0.49287","0.60392, 0.59216, 0.50196","0.60392, 0.60392, 0.55686","0.62839, 0.6118, 0.50808","0.62574, 0.60526, 0.47382","0.60418, 0.59802, 0.5294",What is the color of the previous image?,2022-02-22_19h31.58.381,Representative Color,2021.2.3,Win32,143.3691756,,,,,,
,,,,,,,,0.187037037,-0.07962963,1,0,0,2.2282,sixthChoice,5,"0.69412, 0.4, 0.24314",6,0,15,15,10,1,resources/t3Model-Ol.png,"0.69412, 0.47451, 0.35294","0.7537, 0.51393, 0.381","0.75045, 0.43076, 0.25995","0.56863, 0.2902, 0.18039","0.52941, 0.28235, 0.15294","0.69412, 0.4, 0.24314","0.79608, 0.58039, 0.45098","0.58431, 0.37255, 0.24706",What is the color of the previous image?,2022-02-22_19h31.58.381,Representative Color,2021.2.3,Win32,143.3691756,,,,,,
,,,,,,,,0.05,0.184259259,1,0,0,2.3463,secondChoice,1,"0.78972, 0.56355, 0.43105",2,0,16,16,12,1,resources/t3Model-Y.png,"0.72941, 0.52157, 0.4","0.78972, 0.56355, 0.43105","0.64714, 0.32317, 0.22415","0.62353, 0.34902, 0.22353","0.59216, 0.29804, 0.20784","0.6902, 0.47843, 0.36471","0.80392, 0.60392, 0.49412","0.60784, 0.39216, 0.26275",What is the color of the previous image?,2022-02-22_19h31.58.381,Representative Color,2021.2.3,Win32,143.3691756,,,,,,
,,,,,,,,0.148148148,0.05,1,0,0,2.4989,fourthChoice,3,"0.72549, 0.62353, 0.15686",2,0,17,17,15,1,resources/t3green22days1_hdrOff.png,"0.68235, 0.57255, 0.20784","0.72549, 0.62353, 0.15686","0.76987, 0.66176, 0.16087","0.82745, 0.62745, 0.21569","0.70588, 0.53725, 0.12549","0.7451, 0.66275, 0.27451","0.60784, 0.52941, 0.18824","0.65098, 0.51373, 0.18824",What is the color of the previous image?,2022-02-22_19h31.58.381,Representative Color,2021.2.3,Win32,143.3691756,,,,,,
,,,,,,,,0.062962963,0.163888889,1,0,0,1.6932,secondChoice,1,"0.34902, 0.043137, 0.094118",5,0,18,18,1,1,resources/t3DSC_0021.png,"0.16863, 0.027451, 0.035294","0.34118, 0.023529, 0.05098","0.37836, 0.0080068, 0.055199","0.37255, 0.12157, 0.18431","0.34902, 0.043137, 0.094118","0.41569, 0.23529, 0.29804","0.21569, 0.0078431, 0.019608","0.44314, 0.16863, 0.21961",What is the color of the previous image?,2022-02-22_19h31.58.381,Representative Color,2021.2.3,Win32,143.3691756,,,,,,
,,,,,,,,0.064814815,0.162962963,1,0,0,0.9361,secondChoice,1,"0.34895, 0.44055, 0.21071",7,0,19,19,19,1,resources/t3zgrass.png,"0.30588, 0.41569, 0.18824","0.36341, 0.42546, 0.21823","0.33318, 0.45547, 0.20282","0.32157, 0.38039, 0.19216","0.27231, 0.37211, 0.15269","0.31422, 0.39807, 0.19031","0.34895, 0.44055, 0.21071","0.28046, 0.35484, 0.15506",What is the color of the previous image?,2022-02-22_19h31.58.381,Representative Color,2021.2.3,Win32,143.3691756,,,,,,
,,,,,,,,,,,,,,,,,,,,,,,,,,,,,,,,,2022-02-22_19h31.58.381,Representative Color,2021.2.3,Win32,143.3691756,0,3,3,3,1,resources/trialSixtyFour.xlsx
,,,,,,,,0.071296296,0.15,1,0,0,0.8107,secondChoice,1,"0.78605, 0.55541, 0.43138",3,0,0,0,8,1,resources/t4Model-M.png,"0.72549, 0.51373, 0.4","0.65098, 0.35294, 0.25098","0.78605, 0.55541, 0.43138","0.68985, 0.4335, 0.3243","0.6843, 0.46832, 0.35448","0.71971, 0.45365, 0.33937","0.73744, 0.47932, 0.37149","0.71412, 0.48874, 0.36979",What is the color of the person's skin in the previous image?,2022-02-22_19h31.58.381,Representative Color,2021.2.3,Win32,143.3691756,,,,,,
,,,,,,,,-0.164814815,0.089814815,1,0,0,3.3661,thirdChoice,2,"0.72549, 0.62353, 0.15686",2,0,1,1,15,1,resources/t4green22days1_hdrOff.png,"0.68235, 0.57255, 0.20784","0.72549, 0.62353, 0.15686","0.76987, 0.66176, 0.16087","0.82745, 0.62745, 0.21569","0.70588, 0.53725, 0.12549","0.7451, 0.66275, 0.27451","0.60784, 0.52941, 0.18824","0.65098, 0.51373, 0.18824",What is the color of the tomato in the previous image?,2022-02-22_19h31.58.381,Representative Color,2021.2.3,Win32,143.3691756,,,,,,
,,,,,,,,-0.166666667,0.092592593,1,0,0,1.1577,thirdChoice,2,"0.48627, 0.6, 0.78824",5,0,2,2,18,1,resources/t4sky.png,"0.38039, 0.50588, 0.72941","0.60278, 0.71367, 0.87522","0.41001, 0.54883, 0.79353","0.54118, 0.65098, 0.81961","0.48627, 0.6, 0.78824","0.39516, 0.52728, 0.76134","0.50889, 0.63012, 0.83447","0.4494, 0.57426, 0.79097",What is the color of the sky in the previous image?,2022-02-22_19h31.58.381,Representative Color,2021.2.3,Win32,143.3691756,,,,,,
,,,,,,,,-0.141666667,-0.053703704,1,0,0,1.3592,fifthChoice,4,"0.57757, 0.31686, 0.1774",3,0,3,3,6,1,resources/t4Model-L.png,"0.52549, 0.2902, 0.16471","0.61569, 0.30588, 0.18039","0.57757, 0.31686, 0.1774","0.66902, 0.33001, 0.19272","0.47843, 0.25098, 0.13333","0.65882, 0.4, 0.25882","0.61176, 0.36078, 0.23137","0.41961, 0.20784, 0.094118",What is the color of the person's skin in the previous image?,2022-02-22_19h31.58.381,Representative Color,2021.2.3,Win32,143.3691756,,,,,,
,,,,,,,,-0.087037037,0.172222222,1,0,0,0.9922,firstChoice,0,"0.41066, 0.19954, 0.10607",7,0,4,4,9,1,resources/t4Model-O.png,"0.31765, 0.15686, 0.090196","0.36342, 0.17598, 0.098248","0.55928, 0.25965, 0.13367","0.38431, 0.14902, 0.047059","0.22745, 0.098039, 0.05098","0.27161, 0.12707, 0.072951","0.41066, 0.19954, 0.10607","0.30444, 0.12352, 0.051246",What is the color of the person's skin in the previous image?,2022-02-22_19h31.58.381,Representative Color,2021.2.3,Win32,143.3691756,,,,,,
,,,,,,,,0.163888889,-0.065740741,1,0,0,2.2141,sixthChoice,5,"0.72941, 0.52157, 0.4",1,0,5,5,12,1,resources/t4Model-Y.png,"0.72941, 0.52157, 0.4","0.78972, 0.56355, 0.43105","0.64714, 0.32317, 0.22415","0.62353, 0.34902, 0.22353","0.59216, 0.29804, 0.20784","0.6902, 0.47843, 0.36471","0.80392, 0.60392, 0.49412","0.60784, 0.39216, 0.26275",What is the color of the person's skin in the previous image?,2022-02-22_19h31.58.381,Representative Color,2021.2.3,Win32,143.3691756,,,,,,
,,,,,,,,-0.175,0.077777778,1,0,0,1.9911,thirdChoice,2,"0.8714, 0.46756, 0.23566",2,0,6,6,16,1,resources/t4mysteryLightOr_hdrOff.png,"0.81569, 0.43922, 0.22353","0.8714, 0.46756, 0.23566","0.91794, 0.40919, 0.093393","0.77255, 0.29804, 0.07451","0.9098, 0.55294, 0.30196","0.88627, 0.50196, 0.23922","0.72941, 0.36471, 0.19608","0.81569, 0.36863, 0.13333",What is the color of the tomato in the previous image?,2022-02-22_19h31.58.381,Representative Color,2021.2.3,Win32,143.3691756,,,,,,
,,,,,,,,-0.081481481,0.159259259,1,0,0,1.0539,firstChoice,0,"0.31422, 0.39807, 0.19031",6,0,7,7,19,1,resources/t4zgrass.png,"0.30588, 0.41569, 0.18824","0.36341, 0.42546, 0.21823","0.33318, 0.45547, 0.20282","0.32157, 0.38039, 0.19216","0.27231, 0.37211, 0.15269","0.31422, 0.39807, 0.19031","0.34895, 0.44055, 0.21071","0.28046, 0.35484, 0.15506",What is the color of the grass in the previous image?,2022-02-22_19h31.58.381,Representative Color,2021.2.3,Win32,143.3691756,,,,,,
,,,,,,,,-0.156481481,0.086111111,1,0,0,1.7066,thirdChoice,2,"0.65167, 0.63033, 0.49287",3,0,8,8,0,1,resources/t4DSC_0016.png,"0.6, 0.58039, 0.4549","0.6564, 0.64356, 0.5619","0.65167, 0.63033, 0.49287","0.60392, 0.59216, 0.50196","0.60392, 0.60392, 0.55686","0.62839, 0.6118, 0.50808","0.62574, 0.60526, 0.47382","0.60418, 0.59802, 0.5294",What is the color of the wine in the previous image?,2022-02-22_19h31.58.381,Representative Color,2021.2.3,Win32,143.3691756,,,,,,
,,,,,,,,0.210185185,0.075925926,1,0,0,0.9494,fourthChoice,3,"0.56863, 0.32157, 0.19216",7,0,9,9,5,1,resources/t4Model-J.png,"0.74118, 0.41961, 0.23529","0.52414, 0.27049, 0.13884","0.79714, 0.44966, 0.25005","0.63529, 0.38824, 0.21569","0.70588, 0.43922, 0.2549","0.64314, 0.33725, 0.18431","0.56863, 0.32157, 0.19216","0.4549, 0.23137, 0.12157",What is the color of the person's skin in the previous image?,2022-02-22_19h31.58.381,Representative Color,2021.2.3,Win32,143.3691756,,,,,,
,,,,,,,,-0.053703704,-0.177777778,1,0,0,3.7283,seventhChoice,6,"0.7537, 0.51393, 0.381",2,0,10,10,10,1,resources/t4Model-Ol.png,"0.69412, 0.47451, 0.35294","0.7537, 0.51393, 0.381","0.75045, 0.43076, 0.25995","0.56863, 0.2902, 0.18039","0.52941, 0.28235, 0.15294","0.69412, 0.4, 0.24314","0.79608, 0.58039, 0.45098","0.58431, 0.37255, 0.24706",What is the color of the person's skin in the previous image?,2022-02-22_19h31.58.381,Representative Color,2021.2.3,Win32,143.3691756,,,,,,
,,,,,,,,0.125,-0.062962963,1,0,0,1.0885,eighthChoice,7,"0.41176, 0.59216, 0.11373",5,0,11,11,17,1,resources/t4zpeppers.png,"0.35294, 0.47451, 0.15294","0.48235, 0.63529, 0.13725","0.37942, 0.51262, 0.16068","0.5104, 0.6743, 0.13948","0.41176, 0.59216, 0.11373","0.417, 0.55383, 0.14817","0.38255, 0.53277, 0.1372","0.44713, 0.61369, 0.1255",What is the color of the peppers in the previous image?,2022-02-22_19h31.58.381,Representative Color,2021.2.3,Win32,143.3691756,,,,,,
,,,,,,,,-0.087962963,-0.155555556,1,0,0,1.6439,seventhChoice,6,"0.73725, 0.54118, 0.45098",1,0,12,12,4,1,resources/t4Model-B.png,"0.73725, 0.54118, 0.45098","0.79859, 0.58507, 0.48676","0.72531, 0.40323, 0.30464","0.71373, 0.40784, 0.36078","0.8, 0.48235, 0.4","0.68235, 0.44314, 0.33333","0.64706, 0.45882, 0.36471","0.71765, 0.49804, 0.41176",What is the color of the person's skin in the previous image?,2022-02-22_19h31.58.381,Representative Color,2021.2.3,Win32,143.3691756,,,,,,
,,,,,,,,-0.074074074,-0.159259259,1,0,0,2.1371,seventhChoice,6,"0.34902, 0.043137, 0.094118",5,0,13,13,1,1,resources/t4DSC_0021.png,"0.16863, 0.027451, 0.035294","0.34118, 0.023529, 0.05098","0.37836, 0.0080068, 0.055199","0.37255, 0.12157, 0.18431","0.34902, 0.043137, 0.094118","0.41569, 0.23529, 0.29804","0.21569, 0.0078431, 0.019608","0.44314, 0.16863, 0.21961",What is the color of the wine in the previous image?,2022-02-22_19h31.58.381,Representative Color,2021.2.3,Win32,143.3691756,,,,,,
,,,,,,,,-0.149074074,0.068518519,1,0,0,2.1022,thirdChoice,2,"0.43529, 0.22353, 0.12157",1,0,14,14,14,1,resources/t4Model-yl.png,"0.43529, 0.22353, 0.12157","0.48425, 0.24604, 0.13103","0.74365, 0.40389, 0.19507","0.56078, 0.26667, 0.1451","0.35294, 0.16078, 0.070588","0.6, 0.35294, 0.22353","0.55294, 0.31373, 0.19216","0.30588, 0.12549, 0.043137",What is the color of the person's skin in the previous image?,2022-02-22_19h31.58.381,Representative Color,2021.2.3,Win32,143.3691756,,,,,,
,,,,,,,,0.040740741,0.184259259,1,0,0,1.1312,secondChoice,1,"0.58137, 0.34036, 0.18379",8,0,15,15,13,1,resources/t4Model-ll.png,"0.59608, 0.36863, 0.23137","0.66275, 0.4, 0.21961","0.71741, 0.4315, 0.23453","0.65882, 0.43137, 0.29412","0.62936, 0.38426, 0.22577","0.54887, 0.3251, 0.1898","0.68099, 0.43522, 0.27061","0.58137, 0.34036, 0.18379",What is the color of the person's skin in the previous image?,2022-02-22_19h31.58.381,Representative Color,2021.2.3,Win32,143.3691756,,,,,,
,,,,,,,,0.085185185,0.167592593,1,0,0,0.7282,secondChoice,1,"0.59216, 0.31765, 0.21569",2,0,16,16,3,1,resources/t4Model-A.png,"0.60784, 0.39216, 0.26667","0.59216, 0.31765, 0.21569","0.66468, 0.4273, 0.28886","0.64755, 0.3451, 0.23286","0.72157, 0.47059, 0.33333","0.42353, 0.18824, 0.094118","0.50588, 0.29804, 0.19608","0.56078, 0.3451, 0.23529",What is the color of the person's skin in the previous image?,2022-02-22_19h31.58.381,Representative Color,2021.2.3,Win32,143.3691756,,,,,,
,,,,,,,,0.201851852,0.075,1,0,0,1.0269,fourthChoice,3,"0.79679, 0.57109, 0.41322",2,0,17,17,7,1,resources/t4Model-LC.png,"0.73725, 0.52941, 0.38431","0.79679, 0.57109, 0.41322","0.66488, 0.37758, 0.19682","0.58431, 0.32157, 0.18431","0.61176, 0.34902, 0.18431","0.68627, 0.47059, 0.32941","0.81569, 0.61176, 0.47843","0.63529, 0.42353, 0.27451",What is the color of the person's skin in the previous image?,2022-02-22_19h31.58.381,Representative Color,2021.2.3,Win32,143.3691756,,,,,,
,,,,,,,,-0.147222222,0.056481481,1,0,0,1.381,thirdChoice,2,"0.49412, 0.28627, 0.16471",7,0,18,18,11,1,resources/t4Model-R.png,"0.56863, 0.34902, 0.22353","0.54902, 0.27843, 0.15686","0.62375, 0.38114, 0.24213","0.60078, 0.30229, 0.16803","0.48235, 0.24314, 0.13333","0.65098, 0.41176, 0.28235","0.49412, 0.28627, 0.16471","0.54118, 0.31373, 0.19216",What is the color of the person's skin in the previous image?,2022-02-22_19h31.58.381,Representative Color,2021.2.3,Win32,143.3691756,,,,,,
,,,,,,,,-0.147222222,0.056481481,1,0,0,1.8175,thirdChoice,2,"0.39608, 0.058824, 0.070588",1,0,19,19,2,1,resources/t4DSC_0025.png,"0.39608, 0.058824, 0.070588","0.21431, 0.034629, 0.057098","0.43656, 0.051112, 0.07439","0.51373, 0.35294, 0.40784","0.21961, 0.086275, 0.12549","0.33333, 0.019608, 0.031373","0.36078, 0.26667, 0.32157","0.48235, 0.22745, 0.26275",What is the color of the wine in the previous image?,2022-02-22_19h31.58.381,Representative Color,2021.2.3,Win32,143.3691756,,,,,,
,,,,,,,,,,,,,,,,,,,,,,,,,,,,,,,,,2022-02-22_19h31.58.381,Representative Color,2021.2.3,Win32,143.3691756,0,4,4,4,1,resources/trialFull.xlsx
