textboxDate.text,textboxElectronicSignature.text,textboxAge.text,textboxInitials.text,sliderViewConditions.response,sliderColorScientist.response,sliderCVD.response,sliderGenderIdentification.response,mouseResponse.x,mouseResponse.y,mouseResponse.leftButton,mouseResponse.midButton,mouseResponse.rightButton,mouseResponse.time,mouseResponse.clicked_name,mouseResponseLocation,choiceColor,choiceIndex,trialsStimuli.thisRepN,trialsStimuli.thisTrialN,trialsStimuli.thisN,trialsStimuli.thisIndex,trialsStimuli.ran,File_Name,color1,color2,color3,color4,color5,color6,color7,color8,Question,date,expName,psychopyVersion,OS,frameRate,trialsBlock.thisRepN,trialsBlock.thisTrialN,trialsBlock.thisN,trialsBlock.thisIndex,trialsBlock.ran,cond_file
03/18/22,MMurdoch,46,mjm,2,1,2,2,-0.017764791,0.162933604,1,0,0,1.5474,firstChoice,0,"0.4549, 0.49412, 0.11765",6,0,0,0,1,1,resources/test_tomato_green.png,"0.50196, 0.52941, 0.19608","0.57255, 0.58431, 0.12549","0.53942, 0.56976, 0.20711","0.6093, 0.62259, 0.12696","0.68627, 0.71373, 0.26667","0.4549, 0.49412, 0.11765","0.61961, 0.64314, 0.26667","0.37647, 0.41569, 0.12941",What is the color of the previous image?,2022-03-18_13h28.33.481,Representative Color,2021.2.3,MacIntel,60.0024001,,,,,,
,,,,,,,,0.21229087,-0.046455595,1,0,0,3.2613,sixthChoice,5,"0.79608, 0.21569, 0.12941",6,0,1,1,3,1,resources/test_tomato_red.png,"0.80784, 0.27451, 0.18431","0.84314, 0.21961, 0.10196","0.86089, 0.28874, 0.19361","0.88235, 0.33333, 0.21176","0.74118, 0.22745, 0.16863","0.79608, 0.21569, 0.12941","0.77439, 0.25104, 0.17647","0.85235, 0.25555, 0.14958",What is the color of the tomato in the previous image?,2022-03-18_13h28.33.481,Representative Color,2021.2.3,MacIntel,60.0024001,,,,,,
,,,,,,,,0.189593506,0.076911418,1,0,0,2.0257,fourthChoice,3,"0.21961, 0.41176, 0.72157",4,0,2,2,2,1,resources/test_sky.png,"0.26275, 0.46667, 0.76863","0.2, 0.35686, 0.6902","0.27689, 0.50341, 0.83205","0.21961, 0.41176, 0.72157","0.2415, 0.43907, 0.74504","0.21025, 0.38424, 0.70588","0.35291, 0.58434, 0.85098","0.42745, 0.60784, 0.84314",What is the color of the previous image?,2022-03-18_13h28.33.481,Representative Color,2021.2.3,MacIntel,60.0024001,,,,,,
,,,,,,,,0.070046828,0.161409251,1,0,0,1.5159,secondChoice,1,"0.6, 0.043137, 0.035294",2,0,3,3,0,1,resources/test_wine.png,"0.40784, 0.070588, 0.070588","0.6, 0.043137, 0.035294","0.44887, 0.066156, 0.074042","0.49412, 0.090196, 0.062745","0.53725, 0.011765, 0.0078431","0.30196, 0.066667, 0.062745","0.35427, 0.069613, 0.067232","0.41756, 0.054997, 0.039926",What is the color of the previous image?,2022-03-18_13h28.33.481,Representative Color,2021.2.3,MacIntel,60.0024001,,,,,,
,,,,,,,,,,,,,,,,,,,,,,,,,,,,,,,,,2022-03-18_13h28.33.481,Representative Color,2021.2.3,MacIntel,60.0024001,0,0,0,0,1,resources/training.xlsx
,,,,,,,,0.180300903,-0.063002523,1,0,0,1.7779,sixthChoice,5,"0.65098, 0.41176, 0.28235",6,0,0,0,11,1,resources/t1Model-R.png,"0.56863, 0.34902, 0.22353","0.54902, 0.27843, 0.15686","0.62375, 0.38114, 0.24213","0.60078, 0.30229, 0.16803","0.48235, 0.24314, 0.13333","0.65098, 0.41176, 0.28235","0.49412, 0.28627, 0.16471","0.54118, 0.31373, 0.19216",What is the color of the previous image?,2022-03-18_13h28.33.481,Representative Color,2021.2.3,MacIntel,60.0024001,,,,,,
,,,,,,,,0.17890642,-0.062672467,1,0,0,1.0072,sixthChoice,5,"0.62936, 0.38426, 0.22577",5,0,1,1,13,1,resources/t1Model-ll.png,"0.59608, 0.36863, 0.23137","0.66275, 0.4, 0.21961","0.71741, 0.4315, 0.23453","0.65882, 0.43137, 0.29412","0.62936, 0.38426, 0.22577","0.54887, 0.3251, 0.1898","0.68099, 0.43522, 0.27061","0.58137, 0.34036, 0.18379",What is the color of the previous image?,2022-03-18_13h28.33.481,Representative Color,2021.2.3,MacIntel,60.0024001,,,,,,
,,,,,,,,-0.149965837,-0.063303926,1,0,0,1.2218,fifthChoice,4,"0.73725, 0.52941, 0.38431",1,0,2,2,7,1,resources/t1Model-LC.png,"0.73725, 0.52941, 0.38431","0.79679, 0.57109, 0.41322","0.66488, 0.37758, 0.19682","0.58431, 0.32157, 0.18431","0.61176, 0.34902, 0.18431","0.68627, 0.47059, 0.32941","0.81569, 0.61176, 0.47843","0.63529, 0.42353, 0.27451",What is the color of the previous image?,2022-03-18_13h28.33.481,Representative Color,2021.2.3,MacIntel,60.0024001,,,,,,
,,,,,,,,0.196942139,0.040428543,1,0,0,2.1234,fourthChoice,3,"0.60392, 0.59216, 0.50196",4,0,3,3,0,1,resources/t1DSC_0016.png,"0.6, 0.58039, 0.4549","0.6564, 0.64356, 0.5619","0.65167, 0.63033, 0.49287","0.60392, 0.59216, 0.50196","0.60392, 0.60392, 0.55686","0.62839, 0.6118, 0.50808","0.62574, 0.60526, 0.47382","0.60418, 0.59802, 0.5294",What is the color of the previous image?,2022-03-18_13h28.33.481,Representative Color,2021.2.3,MacIntel,60.0024001,,,,,,
,,,,,,,,-0.147352939,-0.057769903,1,0,0,3.7109,fifthChoice,4,"0.60784, 0.39216, 0.26275",8,0,4,4,12,1,resources/t1Model-Y.png,"0.72941, 0.52157, 0.4","0.78972, 0.56355, 0.43105","0.64714, 0.32317, 0.22415","0.62353, 0.34902, 0.22353","0.59216, 0.29804, 0.20784","0.6902, 0.47843, 0.36471","0.80392, 0.60392, 0.49412","0.60784, 0.39216, 0.26275",What is the color of the previous image?,2022-03-18_13h28.33.481,Representative Color,2021.2.3,MacIntel,60.0024001,,,,,,
,,,,,,,,0.034836324,0.193824874,1,0,0,1.3271,secondChoice,1,"0.35294, 0.47451, 0.15294",1,0,5,5,17,1,resources/t1zpeppers.png,"0.35294, 0.47451, 0.15294","0.48235, 0.63529, 0.13725","0.37942, 0.51262, 0.16068","0.5104, 0.6743, 0.13948","0.41176, 0.59216, 0.11373","0.417, 0.55383, 0.14817","0.38255, 0.53277, 0.1372","0.44713, 0.61369, 0.1255",What is the color of the previous image?,2022-03-18_13h28.33.481,Representative Color,2021.2.3,MacIntel,60.0024001,,,,,,
,,,,,,,,-0.045823246,-0.155280516,1,0,0,3.3706,seventhChoice,6,"0.71765, 0.49804, 0.41176",8,0,6,6,4,1,resources/t1Model-B.png,"0.73725, 0.54118, 0.45098","0.79859, 0.58507, 0.48676","0.72531, 0.40323, 0.30464","0.71373, 0.40784, 0.36078","0.8, 0.48235, 0.4","0.68235, 0.44314, 0.33333","0.64706, 0.45882, 0.36471","0.71765, 0.49804, 0.41176",What is the color of the previous image?,2022-03-18_13h28.33.481,Representative Color,2021.2.3,MacIntel,60.0024001,,,,,,
,,,,,,,,0.09652125,0.171742291,1,0,0,1.2463,secondChoice,1,"0.71971, 0.45365, 0.33937",6,0,7,7,8,1,resources/t1Model-M.png,"0.72549, 0.51373, 0.4","0.65098, 0.35294, 0.25098","0.78605, 0.55541, 0.43138","0.68985, 0.4335, 0.3243","0.6843, 0.46832, 0.35448","0.71971, 0.45365, 0.33937","0.73744, 0.47932, 0.37149","0.71412, 0.48874, 0.36979",What is the color of the previous image?,2022-03-18_13h28.33.481,Representative Color,2021.2.3,MacIntel,60.0024001,,,,,,
,,,,,,,,-0.044857364,0.17772344,1,0,0,1.7354,firstChoice,0,"0.57757, 0.31686, 0.1774",3,0,8,8,6,1,resources/t1Model-L.png,"0.52549, 0.2902, 0.16471","0.61569, 0.30588, 0.18039","0.57757, 0.31686, 0.1774","0.66902, 0.33001, 0.19272","0.47843, 0.25098, 0.13333","0.65882, 0.4, 0.25882","0.61176, 0.36078, 0.23137","0.41961, 0.20784, 0.094118",What is the color of the previous image?,2022-03-18_13h28.33.481,Representative Color,2021.2.3,MacIntel,60.0024001,,,,,,
,,,,,,,,0.191647339,-0.04760242,1,0,0,1.8937,sixthChoice,5,"0.38431, 0.14902, 0.047059",4,0,9,9,9,1,resources/t1Model-O.png,"0.31765, 0.15686, 0.090196","0.36342, 0.17598, 0.098248","0.55928, 0.25965, 0.13367","0.38431, 0.14902, 0.047059","0.22745, 0.098039, 0.05098","0.27161, 0.12707, 0.072951","0.41066, 0.19954, 0.10607","0.30444, 0.12352, 0.051246",What is the color of the previous image?,2022-03-18_13h28.33.481,Representative Color,2021.2.3,MacIntel,60.0024001,,,,,,
,,,,,,,,-0.025819736,-0.156737603,1,0,0,2.0342,seventhChoice,6,"0.50588, 0.29804, 0.19608",7,0,10,10,3,1,resources/t1Model-A.png,"0.60784, 0.39216, 0.26667","0.59216, 0.31765, 0.21569","0.66468, 0.4273, 0.28886","0.64755, 0.3451, 0.23286","0.72157, 0.47059, 0.33333","0.42353, 0.18824, 0.094118","0.50588, 0.29804, 0.19608","0.56078, 0.3451, 0.23529",What is the color of the previous image?,2022-03-18_13h28.33.481,Representative Color,2021.2.3,MacIntel,60.0024001,,,,,,
,,,,,,,,0.170669895,0.059504191,1,0,0,1.4442,fourthChoice,3,"0.34118, 0.023529, 0.05098",2,0,11,11,1,1,resources/t1DSC_0021.png,"0.16863, 0.027451, 0.035294","0.34118, 0.023529, 0.05098","0.37836, 0.0080068, 0.055199","0.37255, 0.12157, 0.18431","0.34902, 0.043137, 0.094118","0.41569, 0.23529, 0.29804","0.21569, 0.0078431, 0.019608","0.44314, 0.16863, 0.21961",What is the color of the previous image?,2022-03-18_13h28.33.481,Representative Color,2021.2.3,MacIntel,60.0024001,,,,,,
,,,,,,,,0.090187158,0.160366186,1,0,0,1.2918,secondChoice,1,"0.4494, 0.57426, 0.79097",8,0,12,12,18,1,resources/t1sky.png,"0.38039, 0.50588, 0.72941","0.60278, 0.71367, 0.87522","0.41001, 0.54883, 0.79353","0.54118, 0.65098, 0.81961","0.48627, 0.6, 0.78824","0.39516, 0.52728, 0.76134","0.50889, 0.63012, 0.83447","0.4494, 0.57426, 0.79097",What is the color of the previous image?,2022-03-18_13h28.33.481,Representative Color,2021.2.3,MacIntel,60.0024001,,,,,,
,,,,,,,,-0.030775791,0.14721845,1,0,0,1.7864,firstChoice,0,"0.77255, 0.29804, 0.07451",4,0,13,13,16,1,resources/t1mysteryLightOr_hdrOff.png,"0.81569, 0.43922, 0.22353","0.8714, 0.46756, 0.23566","0.91794, 0.40919, 0.093393","0.77255, 0.29804, 0.07451","0.9098, 0.55294, 0.30196","0.88627, 0.50196, 0.23922","0.72941, 0.36471, 0.19608","0.81569, 0.36863, 0.13333",What is the color of the previous image?,2022-03-18_13h28.33.481,Representative Color,2021.2.3,MacIntel,60.0024001,,,,,,
,,,,,,,,-0.148045434,0.041518656,1,0,0,3.6491,thirdChoice,2,"0.75045, 0.43076, 0.25995",3,0,14,14,10,1,resources/t1Model-Ol.png,"0.69412, 0.47451, 0.35294","0.7537, 0.51393, 0.381","0.75045, 0.43076, 0.25995","0.56863, 0.2902, 0.18039","0.52941, 0.28235, 0.15294","0.69412, 0.4, 0.24314","0.79608, 0.58039, 0.45098","0.58431, 0.37255, 0.24706",What is the color of the previous image?,2022-03-18_13h28.33.481,Representative Color,2021.2.3,MacIntel,60.0024001,,,,,,
,,,,,,,,0.051667362,0.166130956,1,0,0,2.1392,secondChoice,1,"0.43656, 0.051112, 0.07439",3,0,15,15,2,1,resources/t1DSC_0025.png,"0.39608, 0.058824, 0.070588","0.21431, 0.034629, 0.057098","0.43656, 0.051112, 0.07439","0.51373, 0.35294, 0.40784","0.21961, 0.086275, 0.12549","0.33333, 0.019608, 0.031373","0.36078, 0.26667, 0.32157","0.48235, 0.22745, 0.26275",What is the color of the previous image?,2022-03-18_13h28.33.481,Representative Color,2021.2.3,MacIntel,60.0024001,,,,,,
,,,,,,,,-0.026308017,-0.161278195,1,0,0,2.8202,seventhChoice,6,"0.27231, 0.37211, 0.15269",5,0,16,16,19,1,resources/t1zgrass.png,"0.30588, 0.41569, 0.18824","0.36341, 0.42546, 0.21823","0.33318, 0.45547, 0.20282","0.32157, 0.38039, 0.19216","0.27231, 0.37211, 0.15269","0.31422, 0.39807, 0.19031","0.34895, 0.44055, 0.21071","0.28046, 0.35484, 0.15506",What is the color of the previous image?,2022-03-18_13h28.33.481,Representative Color,2021.2.3,MacIntel,60.0024001,,,,,,
,,,,,,,,-0.050834147,-0.156287893,1,0,0,2.1229,seventhChoice,6,"0.4549, 0.23137, 0.12157",8,0,17,17,5,1,resources/t1Model-J.png,"0.74118, 0.41961, 0.23529","0.52414, 0.27049, 0.13884","0.79714, 0.44966, 0.25005","0.63529, 0.38824, 0.21569","0.70588, 0.43922, 0.2549","0.64314, 0.33725, 0.18431","0.56863, 0.32157, 0.19216","0.4549, 0.23137, 0.12157",What is the color of the previous image?,2022-03-18_13h28.33.481,Representative Color,2021.2.3,MacIntel,60.0024001,,,,,,
,,,,,,,,0.05053126,0.161409124,1,0,0,1.7474,secondChoice,1,"0.60784, 0.52941, 0.18824",7,0,18,18,15,1,resources/t1green22days1_hdrOff.png,"0.68235, 0.57255, 0.20784","0.72549, 0.62353, 0.15686","0.76987, 0.66176, 0.16087","0.82745, 0.62745, 0.21569","0.70588, 0.53725, 0.12549","0.7451, 0.66275, 0.27451","0.60784, 0.52941, 0.18824","0.65098, 0.51373, 0.18824",What is the color of the previous image?,2022-03-18_13h28.33.481,Representative Color,2021.2.3,MacIntel,60.0024001,,,,,,
,,,,,,,,-0.033681912,-0.192842017,1,0,0,2.9074,seventhChoice,6,"0.56078, 0.26667, 0.1451",4,0,19,19,14,1,resources/t1Model-yl.png,"0.43529, 0.22353, 0.12157","0.48425, 0.24604, 0.13103","0.74365, 0.40389, 0.19507","0.56078, 0.26667, 0.1451","0.35294, 0.16078, 0.070588","0.6, 0.35294, 0.22353","0.55294, 0.31373, 0.19216","0.30588, 0.12549, 0.043137",What is the color of the previous image?,2022-03-18_13h28.33.481,Representative Color,2021.2.3,MacIntel,60.0024001,,,,,,
,,,,,,,,,,,,,,,,,,,,,,,,,,,,,,,,,2022-03-18_13h28.33.481,Representative Color,2021.2.3,MacIntel,60.0024001,0,1,1,1,1,resources/trialScramble.xlsx
,,,,,,,,0.029411316,-0.167404514,1,0,0,2.2044,eighthChoice,7,"0.81569, 0.61176, 0.47843",7,0,0,0,7,1,resources/t2Model-LC.png,"0.73725, 0.52941, 0.38431","0.79679, 0.57109, 0.41322","0.66488, 0.37758, 0.19682","0.58431, 0.32157, 0.18431","0.61176, 0.34902, 0.18431","0.68627, 0.47059, 0.32941","0.81569, 0.61176, 0.47843","0.63529, 0.42353, 0.27451",What is the color of the previous image?,2022-03-18_13h28.33.481,Representative Color,2021.2.3,MacIntel,60.0024001,,,,,,
,,,,,,,,0.051869202,-0.171152115,1,0,0,2.5124,eighthChoice,7,"0.30588, 0.41569, 0.18824",1,0,1,1,19,1,resources/t2zgrass.png,"0.30588, 0.41569, 0.18824","0.36341, 0.42546, 0.21823","0.33318, 0.45547, 0.20282","0.32157, 0.38039, 0.19216","0.27231, 0.37211, 0.15269","0.31422, 0.39807, 0.19031","0.34895, 0.44055, 0.21071","0.28046, 0.35484, 0.15506",What is the color of the previous image?,2022-03-18_13h28.33.481,Representative Color,2021.2.3,MacIntel,60.0024001,,,,,,
,,,,,,,,0.174735853,-0.068590546,1,0,0,1.4489,sixthChoice,5,"0.65882, 0.43137, 0.29412",4,0,2,2,13,1,resources/t2Model-ll.png,"0.59608, 0.36863, 0.23137","0.66275, 0.4, 0.21961","0.71741, 0.4315, 0.23453","0.65882, 0.43137, 0.29412","0.62936, 0.38426, 0.22577","0.54887, 0.3251, 0.1898","0.68099, 0.43522, 0.27061","0.58137, 0.34036, 0.18379",What is the color of the previous image?,2022-03-18_13h28.33.481,Representative Color,2021.2.3,MacIntel,60.0024001,,,,,,
,,,,,,,,0.092148081,-0.167314826,1,0,0,2.6832,eighthChoice,7,"0.34118, 0.023529, 0.05098",2,0,3,3,1,1,resources/t2DSC_0021.png,"0.16863, 0.027451, 0.035294","0.34118, 0.023529, 0.05098","0.37836, 0.0080068, 0.055199","0.37255, 0.12157, 0.18431","0.34902, 0.043137, 0.094118","0.41569, 0.23529, 0.29804","0.21569, 0.0078431, 0.019608","0.44314, 0.16863, 0.21961",What is the color of the previous image?,2022-03-18_13h28.33.481,Representative Color,2021.2.3,MacIntel,60.0024001,,,,,,
,,,,,,,,-0.084826152,-0.162189356,1,0,0,3.243,seventhChoice,6,"0.65882, 0.4, 0.25882",6,0,4,4,6,1,resources/t2Model-L.png,"0.52549, 0.2902, 0.16471","0.61569, 0.30588, 0.18039","0.57757, 0.31686, 0.1774","0.66902, 0.33001, 0.19272","0.47843, 0.25098, 0.13333","0.65882, 0.4, 0.25882","0.61176, 0.36078, 0.23137","0.41961, 0.20784, 0.094118",What is the color of the previous image?,2022-03-18_13h28.33.481,Representative Color,2021.2.3,MacIntel,60.0024001,,,,,,
,,,,,,,,0.044324239,-0.161567137,1,0,0,1.9155,eighthChoice,7,"0.62375, 0.38114, 0.24213",3,0,5,5,11,1,resources/t2Model-R.png,"0.56863, 0.34902, 0.22353","0.54902, 0.27843, 0.15686","0.62375, 0.38114, 0.24213","0.60078, 0.30229, 0.16803","0.48235, 0.24314, 0.13333","0.65098, 0.41176, 0.28235","0.49412, 0.28627, 0.16471","0.54118, 0.31373, 0.19216",What is the color of the previous image?,2022-03-18_13h28.33.481,Representative Color,2021.2.3,MacIntel,60.0024001,,,,,,
,,,,,,,,0.203780111,0.069710286,1,0,0,0.8777,fourthChoice,3,"0.66468, 0.4273, 0.28886",3,0,6,6,3,1,resources/t2Model-A.png,"0.60784, 0.39216, 0.26667","0.59216, 0.31765, 0.21569","0.66468, 0.4273, 0.28886","0.64755, 0.3451, 0.23286","0.72157, 0.47059, 0.33333","0.42353, 0.18824, 0.094118","0.50588, 0.29804, 0.19608","0.56078, 0.3451, 0.23529",What is the color of the previous image?,2022-03-18_13h28.33.481,Representative Color,2021.2.3,MacIntel,60.0024001,,,,,,
,,,,,,,,-0.02829912,-0.174811003,1,0,0,2.2391,seventhChoice,6,"0.4549, 0.23137, 0.12157",8,0,7,7,5,1,resources/t2Model-J.png,"0.74118, 0.41961, 0.23529","0.52414, 0.27049, 0.13884","0.79714, 0.44966, 0.25005","0.63529, 0.38824, 0.21569","0.70588, 0.43922, 0.2549","0.64314, 0.33725, 0.18431","0.56863, 0.32157, 0.19216","0.4549, 0.23137, 0.12157",What is the color of the previous image?,2022-03-18_13h28.33.481,Representative Color,2021.2.3,MacIntel,60.0024001,,,,,,
,,,,,,,,-0.159413486,0.051983939,1,0,0,1.45,thirdChoice,2,"0.39516, 0.52728, 0.76134",6,0,8,8,18,1,resources/t2sky.png,"0.38039, 0.50588, 0.72941","0.60278, 0.71367, 0.87522","0.41001, 0.54883, 0.79353","0.54118, 0.65098, 0.81961","0.48627, 0.6, 0.78824","0.39516, 0.52728, 0.76134","0.50889, 0.63012, 0.83447","0.4494, 0.57426, 0.79097",What is the color of the previous image?,2022-03-18_13h28.33.481,Representative Color,2021.2.3,MacIntel,60.0024001,,,,,,
,,,,,,,,-0.035504998,0.163715405,1,0,0,1.2951,firstChoice,0,"0.38431, 0.14902, 0.047059",4,0,9,9,9,1,resources/t2Model-O.png,"0.31765, 0.15686, 0.090196","0.36342, 0.17598, 0.098248","0.55928, 0.25965, 0.13367","0.38431, 0.14902, 0.047059","0.22745, 0.098039, 0.05098","0.27161, 0.12707, 0.072951","0.41066, 0.19954, 0.10607","0.30444, 0.12352, 0.051246",What is the color of the previous image?,2022-03-18_13h28.33.481,Representative Color,2021.2.3,MacIntel,60.0024001,,,,,,
,,,,,,,,0.191812303,-0.088766395,1,0,0,2.2395,sixthChoice,5,"0.33333, 0.019608, 0.031373",6,0,10,10,2,1,resources/t2DSC_0025.png,"0.39608, 0.058824, 0.070588","0.21431, 0.034629, 0.057098","0.43656, 0.051112, 0.07439","0.51373, 0.35294, 0.40784","0.21961, 0.086275, 0.12549","0.33333, 0.019608, 0.031373","0.36078, 0.26667, 0.32157","0.48235, 0.22745, 0.26275",What is the color of the previous image?,2022-03-18_13h28.33.481,Representative Color,2021.2.3,MacIntel,60.0024001,,,,,,
,,,,,,,,-0.21277788,-0.092163891,1,0,0,2.9617,fifthChoice,4,"0.77255, 0.29804, 0.07451",4,0,11,11,16,1,resources/t2mysteryLightOr_hdrOff.png,"0.81569, 0.43922, 0.22353","0.8714, 0.46756, 0.23566","0.91794, 0.40919, 0.093393","0.77255, 0.29804, 0.07451","0.9098, 0.55294, 0.30196","0.88627, 0.50196, 0.23922","0.72941, 0.36471, 0.19608","0.81569, 0.36863, 0.13333",What is the color of the previous image?,2022-03-18_13h28.33.481,Representative Color,2021.2.3,MacIntel,60.0024001,,,,,,
,,,,,,,,0.204207865,-0.017648909,1,0,0,2.6068,sixthChoice,5,"0.38255, 0.53277, 0.1372",7,0,12,12,17,1,resources/t2zpeppers.png,"0.35294, 0.47451, 0.15294","0.48235, 0.63529, 0.13725","0.37942, 0.51262, 0.16068","0.5104, 0.6743, 0.13948","0.41176, 0.59216, 0.11373","0.417, 0.55383, 0.14817","0.38255, 0.53277, 0.1372","0.44713, 0.61369, 0.1255",What is the color of the previous image?,2022-03-18_13h28.33.481,Representative Color,2021.2.3,MacIntel,60.0024001,,,,,,
,,,,,,,,-0.177680122,-0.05191324,1,0,0,2.4007,fifthChoice,4,"0.75045, 0.43076, 0.25995",3,0,13,13,10,1,resources/t2Model-Ol.png,"0.69412, 0.47451, 0.35294","0.7537, 0.51393, 0.381","0.75045, 0.43076, 0.25995","0.56863, 0.2902, 0.18039","0.52941, 0.28235, 0.15294","0.69412, 0.4, 0.24314","0.79608, 0.58039, 0.45098","0.58431, 0.37255, 0.24706",What is the color of the previous image?,2022-03-18_13h28.33.481,Representative Color,2021.2.3,MacIntel,60.0024001,,,,,,
,,,,,,,,-0.168984731,0.053087786,1,0,0,1.4658,thirdChoice,2,"0.79859, 0.58507, 0.48676",2,0,14,14,4,1,resources/t2Model-B.png,"0.73725, 0.54118, 0.45098","0.79859, 0.58507, 0.48676","0.72531, 0.40323, 0.30464","0.71373, 0.40784, 0.36078","0.8, 0.48235, 0.4","0.68235, 0.44314, 0.33333","0.64706, 0.45882, 0.36471","0.71765, 0.49804, 0.41176",What is the color of the previous image?,2022-03-18_13h28.33.481,Representative Color,2021.2.3,MacIntel,60.0024001,,,,,,
,,,,,,,,-0.04334454,-0.148016697,1,0,0,2.7609,seventhChoice,6,"0.35294, 0.16078, 0.070588",5,0,15,15,14,1,resources/t2Model-yl.png,"0.43529, 0.22353, 0.12157","0.48425, 0.24604, 0.13103","0.74365, 0.40389, 0.19507","0.56078, 0.26667, 0.1451","0.35294, 0.16078, 0.070588","0.6, 0.35294, 0.22353","0.55294, 0.31373, 0.19216","0.30588, 0.12549, 0.043137",What is the color of the previous image?,2022-03-18_13h28.33.481,Representative Color,2021.2.3,MacIntel,60.0024001,,,,,,
,,,,,,,,0.170010122,-0.068394725,1,0,0,1.6314,sixthChoice,5,"0.62839, 0.6118, 0.50808",6,0,16,16,0,1,resources/t2DSC_0016.png,"0.6, 0.58039, 0.4549","0.6564, 0.64356, 0.5619","0.65167, 0.63033, 0.49287","0.60392, 0.59216, 0.50196","0.60392, 0.60392, 0.55686","0.62839, 0.6118, 0.50808","0.62574, 0.60526, 0.47382","0.60418, 0.59802, 0.5294",What is the color of the previous image?,2022-03-18_13h28.33.481,Representative Color,2021.2.3,MacIntel,60.0024001,,,,,,
,,,,,,,,-0.06792077,-0.187681792,1,0,0,1.693,seventhChoice,6,"0.68235, 0.57255, 0.20784",1,0,17,17,15,1,resources/t2green22days1_hdrOff.png,"0.68235, 0.57255, 0.20784","0.72549, 0.62353, 0.15686","0.76987, 0.66176, 0.16087","0.82745, 0.62745, 0.21569","0.70588, 0.53725, 0.12549","0.7451, 0.66275, 0.27451","0.60784, 0.52941, 0.18824","0.65098, 0.51373, 0.18824",What is the color of the previous image?,2022-03-18_13h28.33.481,Representative Color,2021.2.3,MacIntel,60.0024001,,,,,,
,,,,,,,,0.063744609,-0.174215105,1,0,0,1.672,eighthChoice,7,"0.78972, 0.56355, 0.43105",2,0,18,18,12,1,resources/t2Model-Y.png,"0.72941, 0.52157, 0.4","0.78972, 0.56355, 0.43105","0.64714, 0.32317, 0.22415","0.62353, 0.34902, 0.22353","0.59216, 0.29804, 0.20784","0.6902, 0.47843, 0.36471","0.80392, 0.60392, 0.49412","0.60784, 0.39216, 0.26275",What is the color of the previous image?,2022-03-18_13h28.33.481,Representative Color,2021.2.3,MacIntel,60.0024001,,,,,,
,,,,,,,,0.048723178,0.158593326,1,0,0,5.5843,secondChoice,1,"0.71412, 0.48874, 0.36979",8,0,19,19,8,1,resources/t2Model-M.png,"0.72549, 0.51373, 0.4","0.65098, 0.35294, 0.25098","0.78605, 0.55541, 0.43138","0.68985, 0.4335, 0.3243","0.6843, 0.46832, 0.35448","0.71971, 0.45365, 0.33937","0.73744, 0.47932, 0.37149","0.71412, 0.48874, 0.36979",What is the color of the previous image?,2022-03-18_13h28.33.481,Representative Color,2021.2.3,MacIntel,60.0024001,,,,,,
,,,,,,,,,,,,,,,,,,,,,,,,,,,,,,,,,2022-03-18_13h28.33.481,Representative Color,2021.2.3,MacIntel,60.0024001,0,2,2,2,1,resources/trialSixteen.xlsx
,,,,,,,,-0.185438283,-0.056273354,1,0,0,3.1687,fifthChoice,4,"0.65882, 0.4, 0.25882",6,0,0,0,6,1,resources/t3Model-L.png,"0.52549, 0.2902, 0.16471","0.61569, 0.30588, 0.18039","0.57757, 0.31686, 0.1774","0.66902, 0.33001, 0.19272","0.47843, 0.25098, 0.13333","0.65882, 0.4, 0.25882","0.61176, 0.36078, 0.23137","0.41961, 0.20784, 0.094118",What is the color of the previous image?,2022-03-18_13h28.33.481,Representative Color,2021.2.3,MacIntel,60.0024001,,,,,,
,,,,,,,,0.175052897,-0.070436096,1,0,0,1.4852,sixthChoice,5,"0.7537, 0.51393, 0.381",2,0,1,1,10,1,resources/t3Model-Ol.png,"0.69412, 0.47451, 0.35294","0.7537, 0.51393, 0.381","0.75045, 0.43076, 0.25995","0.56863, 0.2902, 0.18039","0.52941, 0.28235, 0.15294","0.69412, 0.4, 0.24314","0.79608, 0.58039, 0.45098","0.58431, 0.37255, 0.24706",What is the color of the previous image?,2022-03-18_13h28.33.481,Representative Color,2021.2.3,MacIntel,60.0024001,,,,,,
,,,,,,,,0.078757222,0.156760534,1,0,0,3.3443,secondChoice,1,"0.49412, 0.28627, 0.16471",7,0,2,2,11,1,resources/t3Model-R.png,"0.56863, 0.34902, 0.22353","0.54902, 0.27843, 0.15686","0.62375, 0.38114, 0.24213","0.60078, 0.30229, 0.16803","0.48235, 0.24314, 0.13333","0.65098, 0.41176, 0.28235","0.49412, 0.28627, 0.16471","0.54118, 0.31373, 0.19216",What is the color of the previous image?,2022-03-18_13h28.33.481,Representative Color,2021.2.3,MacIntel,60.0024001,,,,,,
,,,,,,,,0.196303982,-0.086177317,1,0,0,1.8339,sixthChoice,5,"0.37836, 0.0080068, 0.055199",3,0,3,3,1,1,resources/t3DSC_0021.png,"0.16863, 0.027451, 0.035294","0.34118, 0.023529, 0.05098","0.37836, 0.0080068, 0.055199","0.37255, 0.12157, 0.18431","0.34902, 0.043137, 0.094118","0.41569, 0.23529, 0.29804","0.21569, 0.0078431, 0.019608","0.44314, 0.16863, 0.21961",What is the color of the previous image?,2022-03-18_13h28.33.481,Representative Color,2021.2.3,MacIntel,60.0024001,,,,,,
,,,,,,,,-0.061798943,-0.190116119,1,0,0,3.9549,seventhChoice,6,"0.6843, 0.46832, 0.35448",5,0,4,4,8,1,resources/t3Model-M.png,"0.72549, 0.51373, 0.4","0.65098, 0.35294, 0.25098","0.78605, 0.55541, 0.43138","0.68985, 0.4335, 0.3243","0.6843, 0.46832, 0.35448","0.71971, 0.45365, 0.33937","0.73744, 0.47932, 0.37149","0.71412, 0.48874, 0.36979",What is the color of the previous image?,2022-03-18_13h28.33.481,Representative Color,2021.2.3,MacIntel,60.0024001,,,,,,
,,,,,,,,-0.043903944,-0.192355092,1,0,0,3.0421,seventhChoice,6,"0.52414, 0.27049, 0.13884",2,0,5,5,5,1,resources/t3Model-J.png,"0.74118, 0.41961, 0.23529","0.52414, 0.27049, 0.13884","0.79714, 0.44966, 0.25005","0.63529, 0.38824, 0.21569","0.70588, 0.43922, 0.2549","0.64314, 0.33725, 0.18431","0.56863, 0.32157, 0.19216","0.4549, 0.23137, 0.12157",What is the color of the previous image?,2022-03-18_13h28.33.481,Representative Color,2021.2.3,MacIntel,60.0024001,,,,,,
,,,,,,,,-0.050245412,0.156725099,1,0,0,2.4577,firstChoice,0,"0.36342, 0.17598, 0.098248",2,0,6,6,9,1,resources/t3Model-O.png,"0.31765, 0.15686, 0.090196","0.36342, 0.17598, 0.098248","0.55928, 0.25965, 0.13367","0.38431, 0.14902, 0.047059","0.22745, 0.098039, 0.05098","0.27161, 0.12707, 0.072951","0.41066, 0.19954, 0.10607","0.30444, 0.12352, 0.051246",What is the color of the previous image?,2022-03-18_13h28.33.481,Representative Color,2021.2.3,MacIntel,60.0024001,,,,,,
,,,,,,,,-0.038270484,-0.193142955,1,0,0,1.5504,seventhChoice,6,"0.33333, 0.019608, 0.031373",6,0,7,7,2,1,resources/t3DSC_0025.png,"0.39608, 0.058824, 0.070588","0.21431, 0.034629, 0.057098","0.43656, 0.051112, 0.07439","0.51373, 0.35294, 0.40784","0.21961, 0.086275, 0.12549","0.33333, 0.019608, 0.031373","0.36078, 0.26667, 0.32157","0.48235, 0.22745, 0.26275",What is the color of the previous image?,2022-03-18_13h28.33.481,Representative Color,2021.2.3,MacIntel,60.0024001,,,,,,
,,,,,,,,0.209597185,0.034648048,1,0,0,1.9376,fourthChoice,3,"0.6564, 0.64356, 0.5619",2,0,8,8,0,1,resources/t3DSC_0016.png,"0.6, 0.58039, 0.4549","0.6564, 0.64356, 0.5619","0.65167, 0.63033, 0.49287","0.60392, 0.59216, 0.50196","0.60392, 0.60392, 0.55686","0.62839, 0.6118, 0.50808","0.62574, 0.60526, 0.47382","0.60418, 0.59802, 0.5294",What is the color of the previous image?,2022-03-18_13h28.33.481,Representative Color,2021.2.3,MacIntel,60.0024001,,,,,,
,,,,,,,,0.200330607,0.032424969,1,0,0,2.1289,fourthChoice,3,"0.81569, 0.36863, 0.13333",8,0,9,9,16,1,resources/t3mysteryLightOr_hdrOff.png,"0.81569, 0.43922, 0.22353","0.8714, 0.46756, 0.23566","0.91794, 0.40919, 0.093393","0.77255, 0.29804, 0.07451","0.9098, 0.55294, 0.30196","0.88627, 0.50196, 0.23922","0.72941, 0.36471, 0.19608","0.81569, 0.36863, 0.13333",What is the color of the previous image?,2022-03-18_13h28.33.481,Representative Color,2021.2.3,MacIntel,60.0024001,,,,,,
,,,,,,,,0.169726563,0.085719511,1,0,0,3.3798,fourthChoice,3,"0.72549, 0.62353, 0.15686",2,0,10,10,15,1,resources/t3green22days1_hdrOff.png,"0.68235, 0.57255, 0.20784","0.72549, 0.62353, 0.15686","0.76987, 0.66176, 0.16087","0.82745, 0.62745, 0.21569","0.70588, 0.53725, 0.12549","0.7451, 0.66275, 0.27451","0.60784, 0.52941, 0.18824","0.65098, 0.51373, 0.18824",What is the color of the previous image?,2022-03-18_13h28.33.481,Representative Color,2021.2.3,MacIntel,60.0024001,,,,,,
,,,,,,,,0.195592244,0.043349372,1,0,0,2.401,fourthChoice,3,"0.58137, 0.34036, 0.18379",8,0,11,11,13,1,resources/t3Model-ll.png,"0.59608, 0.36863, 0.23137","0.66275, 0.4, 0.21961","0.71741, 0.4315, 0.23453","0.65882, 0.43137, 0.29412","0.62936, 0.38426, 0.22577","0.54887, 0.3251, 0.1898","0.68099, 0.43522, 0.27061","0.58137, 0.34036, 0.18379",What is the color of the previous image?,2022-03-18_13h28.33.481,Representative Color,2021.2.3,MacIntel,60.0024001,,,,,,
,,,,,,,,-0.199849998,0.023691474,1,0,0,3.8804,thirdChoice,2,"0.6902, 0.47843, 0.36471",6,0,12,12,12,1,resources/t3Model-Y.png,"0.72941, 0.52157, 0.4","0.78972, 0.56355, 0.43105","0.64714, 0.32317, 0.22415","0.62353, 0.34902, 0.22353","0.59216, 0.29804, 0.20784","0.6902, 0.47843, 0.36471","0.80392, 0.60392, 0.49412","0.60784, 0.39216, 0.26275",What is the color of the previous image?,2022-03-18_13h28.33.481,Representative Color,2021.2.3,MacIntel,60.0024001,,,,,,
,,,,,,,,0.213602108,0.033977212,1,0,0,3.254,fourthChoice,3,"0.43529, 0.22353, 0.12157",1,0,13,13,14,1,resources/t3Model-yl.png,"0.43529, 0.22353, 0.12157","0.48425, 0.24604, 0.13103","0.74365, 0.40389, 0.19507","0.56078, 0.26667, 0.1451","0.35294, 0.16078, 0.070588","0.6, 0.35294, 0.22353","0.55294, 0.31373, 0.19216","0.30588, 0.12549, 0.043137",What is the color of the previous image?,2022-03-18_13h28.33.481,Representative Color,2021.2.3,MacIntel,60.0024001,,,,,,
,,,,,,,,-0.06032647,0.157779863,1,0,0,2.64,firstChoice,0,"0.36341, 0.42546, 0.21823",2,0,14,14,19,1,resources/t3zgrass.png,"0.30588, 0.41569, 0.18824","0.36341, 0.42546, 0.21823","0.33318, 0.45547, 0.20282","0.32157, 0.38039, 0.19216","0.27231, 0.37211, 0.15269","0.31422, 0.39807, 0.19031","0.34895, 0.44055, 0.21071","0.28046, 0.35484, 0.15506",What is the color of the previous image?,2022-03-18_13h28.33.481,Representative Color,2021.2.3,MacIntel,60.0024001,,,,,,
,,,,,,,,0.089011976,0.14632331,1,0,0,2.2908,secondChoice,1,"0.50588, 0.29804, 0.19608",7,0,15,15,3,1,resources/t3Model-A.png,"0.60784, 0.39216, 0.26667","0.59216, 0.31765, 0.21569","0.66468, 0.4273, 0.28886","0.64755, 0.3451, 0.23286","0.72157, 0.47059, 0.33333","0.42353, 0.18824, 0.094118","0.50588, 0.29804, 0.19608","0.56078, 0.3451, 0.23529",What is the color of the previous image?,2022-03-18_13h28.33.481,Representative Color,2021.2.3,MacIntel,60.0024001,,,,,,
,,,,,,,,-0.034245978,-0.167200385,1,0,0,2.6768,seventhChoice,6,"0.41001, 0.54883, 0.79353",3,0,16,16,18,1,resources/t3sky.png,"0.38039, 0.50588, 0.72941","0.60278, 0.71367, 0.87522","0.41001, 0.54883, 0.79353","0.54118, 0.65098, 0.81961","0.48627, 0.6, 0.78824","0.39516, 0.52728, 0.76134","0.50889, 0.63012, 0.83447","0.4494, 0.57426, 0.79097",What is the color of the previous image?,2022-03-18_13h28.33.481,Representative Color,2021.2.3,MacIntel,60.0024001,,,,,,
,,,,,,,,-0.144390276,-0.076874542,1,0,0,3.2416,fifthChoice,4,"0.68627, 0.47059, 0.32941",6,0,17,17,7,1,resources/t3Model-LC.png,"0.73725, 0.52941, 0.38431","0.79679, 0.57109, 0.41322","0.66488, 0.37758, 0.19682","0.58431, 0.32157, 0.18431","0.61176, 0.34902, 0.18431","0.68627, 0.47059, 0.32941","0.81569, 0.61176, 0.47843","0.63529, 0.42353, 0.27451",What is the color of the previous image?,2022-03-18_13h28.33.481,Representative Color,2021.2.3,MacIntel,60.0024001,,,,,,
,,,,,,,,0.170819516,0.044462501,1,0,0,2.5261,fourthChoice,3,"0.71765, 0.49804, 0.41176",8,0,18,18,4,1,resources/t3Model-B.png,"0.73725, 0.54118, 0.45098","0.79859, 0.58507, 0.48676","0.72531, 0.40323, 0.30464","0.71373, 0.40784, 0.36078","0.8, 0.48235, 0.4","0.68235, 0.44314, 0.33333","0.64706, 0.45882, 0.36471","0.71765, 0.49804, 0.41176",What is the color of the previous image?,2022-03-18_13h28.33.481,Representative Color,2021.2.3,MacIntel,60.0024001,,,,,,
,,,,,,,,0.184972466,-0.064281294,1,0,0,2.3885,sixthChoice,5,"0.38255, 0.53277, 0.1372",7,0,19,19,17,1,resources/t3zpeppers.png,"0.35294, 0.47451, 0.15294","0.48235, 0.63529, 0.13725","0.37942, 0.51262, 0.16068","0.5104, 0.6743, 0.13948","0.41176, 0.59216, 0.11373","0.417, 0.55383, 0.14817","0.38255, 0.53277, 0.1372","0.44713, 0.61369, 0.1255",What is the color of the previous image?,2022-03-18_13h28.33.481,Representative Color,2021.2.3,MacIntel,60.0024001,,,,,,
,,,,,,,,,,,,,,,,,,,,,,,,,,,,,,,,,2022-03-18_13h28.33.481,Representative Color,2021.2.3,MacIntel,60.0024001,0,3,3,3,1,resources/trialSixtyFour.xlsx
,,,,,,,,-0.1762107,-0.062542216,1,0,0,2.8485,fifthChoice,4,"0.7537, 0.51393, 0.381",2,0,0,0,10,1,resources/t4Model-Ol.png,"0.69412, 0.47451, 0.35294","0.7537, 0.51393, 0.381","0.75045, 0.43076, 0.25995","0.56863, 0.2902, 0.18039","0.52941, 0.28235, 0.15294","0.69412, 0.4, 0.24314","0.79608, 0.58039, 0.45098","0.58431, 0.37255, 0.24706",What is the color of the person's skin in the previous image?,2022-03-18_13h28.33.481,Representative Color,2021.2.3,MacIntel,60.0024001,,,,,,
,,,,,,,,-0.165639072,-0.077443356,1,0,0,2.9938,fifthChoice,4,"0.6564, 0.64356, 0.5619",2,0,1,1,0,1,resources/t4DSC_0016.png,"0.6, 0.58039, 0.4549","0.6564, 0.64356, 0.5619","0.65167, 0.63033, 0.49287","0.60392, 0.59216, 0.50196","0.60392, 0.60392, 0.55686","0.62839, 0.6118, 0.50808","0.62574, 0.60526, 0.47382","0.60418, 0.59802, 0.5294",What is the color of the wine in the previous image?,2022-03-18_13h28.33.481,Representative Color,2021.2.3,MacIntel,60.0024001,,,,,,
,,,,,,,,-0.166001468,-0.027569156,1,0,0,3.0434,fifthChoice,4,"0.52414, 0.27049, 0.13884",2,0,2,2,5,1,resources/t4Model-J.png,"0.74118, 0.41961, 0.23529","0.52414, 0.27049, 0.13884","0.79714, 0.44966, 0.25005","0.63529, 0.38824, 0.21569","0.70588, 0.43922, 0.2549","0.64314, 0.33725, 0.18431","0.56863, 0.32157, 0.19216","0.4549, 0.23137, 0.12157",What is the color of the person's skin in the previous image?,2022-03-18_13h28.33.481,Representative Color,2021.2.3,MacIntel,60.0024001,,,,,,
,,,,,,,,0.155554877,-0.034303835,1,0,0,2.6909,sixthChoice,5,"0.72549, 0.62353, 0.15686",2,0,3,3,15,1,resources/t4green22days1_hdrOff.png,"0.68235, 0.57255, 0.20784","0.72549, 0.62353, 0.15686","0.76987, 0.66176, 0.16087","0.82745, 0.62745, 0.21569","0.70588, 0.53725, 0.12549","0.7451, 0.66275, 0.27451","0.60784, 0.52941, 0.18824","0.65098, 0.51373, 0.18824",What is the color of the tomato in the previous image?,2022-03-18_13h28.33.481,Representative Color,2021.2.3,MacIntel,60.0024001,,,,,,
,,,,,,,,0.090348901,0.150963932,1,0,0,1.5209,secondChoice,1,"0.72941, 0.52157, 0.4",1,0,4,4,12,1,resources/t4Model-Y.png,"0.72941, 0.52157, 0.4","0.78972, 0.56355, 0.43105","0.64714, 0.32317, 0.22415","0.62353, 0.34902, 0.22353","0.59216, 0.29804, 0.20784","0.6902, 0.47843, 0.36471","0.80392, 0.60392, 0.49412","0.60784, 0.39216, 0.26275",What is the color of the person's skin in the previous image?,2022-03-18_13h28.33.481,Representative Color,2021.2.3,MacIntel,60.0024001,,,,,,
,,,,,,,,0.0807095,0.153631867,1,0,0,3.9308,secondChoice,1,"0.49412, 0.28627, 0.16471",7,0,5,5,11,1,resources/t4Model-R.png,"0.56863, 0.34902, 0.22353","0.54902, 0.27843, 0.15686","0.62375, 0.38114, 0.24213","0.60078, 0.30229, 0.16803","0.48235, 0.24314, 0.13333","0.65098, 0.41176, 0.28235","0.49412, 0.28627, 0.16471","0.54118, 0.31373, 0.19216",What is the color of the person's skin in the previous image?,2022-03-18_13h28.33.481,Representative Color,2021.2.3,MacIntel,60.0024001,,,,,,
,,,,,,,,-0.156027391,0.087705485,1,0,0,1.6824,thirdChoice,2,"0.68627, 0.47059, 0.32941",6,0,6,6,7,1,resources/t4Model-LC.png,"0.73725, 0.52941, 0.38431","0.79679, 0.57109, 0.41322","0.66488, 0.37758, 0.19682","0.58431, 0.32157, 0.18431","0.61176, 0.34902, 0.18431","0.68627, 0.47059, 0.32941","0.81569, 0.61176, 0.47843","0.63529, 0.42353, 0.27451",What is the color of the person's skin in the previous image?,2022-03-18_13h28.33.481,Representative Color,2021.2.3,MacIntel,60.0024001,,,,,,
,,,,,,,,0.082414585,0.168251334,1,0,0,2.1508,secondChoice,1,"0.68099, 0.43522, 0.27061",7,0,7,7,13,1,resources/t4Model-ll.png,"0.59608, 0.36863, 0.23137","0.66275, 0.4, 0.21961","0.71741, 0.4315, 0.23453","0.65882, 0.43137, 0.29412","0.62936, 0.38426, 0.22577","0.54887, 0.3251, 0.1898","0.68099, 0.43522, 0.27061","0.58137, 0.34036, 0.18379",What is the color of the person's skin in the previous image?,2022-03-18_13h28.33.481,Representative Color,2021.2.3,MacIntel,60.0024001,,,,,,
,,,,,,,,-0.216484578,-0.065955183,1,0,0,1.9197,fifthChoice,4,"0.37942, 0.51262, 0.16068",3,0,8,8,17,1,resources/t4zpeppers.png,"0.35294, 0.47451, 0.15294","0.48235, 0.63529, 0.13725","0.37942, 0.51262, 0.16068","0.5104, 0.6743, 0.13948","0.41176, 0.59216, 0.11373","0.417, 0.55383, 0.14817","0.38255, 0.53277, 0.1372","0.44713, 0.61369, 0.1255",What is the color of the peppers in the previous image?,2022-03-18_13h28.33.481,Representative Color,2021.2.3,MacIntel,60.0024001,,,,,,
,,,,,,,,0.194211663,0.072990587,1,0,0,1.3095,fourthChoice,3,"0.71765, 0.49804, 0.41176",8,0,9,9,4,1,resources/t4Model-B.png,"0.73725, 0.54118, 0.45098","0.79859, 0.58507, 0.48676","0.72531, 0.40323, 0.30464","0.71373, 0.40784, 0.36078","0.8, 0.48235, 0.4","0.68235, 0.44314, 0.33333","0.64706, 0.45882, 0.36471","0.71765, 0.49804, 0.41176",What is the color of the person's skin in the previous image?,2022-03-18_13h28.33.481,Representative Color,2021.2.3,MacIntel,60.0024001,,,,,,
,,,,,,,,-0.028106011,0.153849559,1,0,0,4.6671,firstChoice,0,"0.4494, 0.57426, 0.79097",8,0,10,10,18,1,resources/t4sky.png,"0.38039, 0.50588, 0.72941","0.60278, 0.71367, 0.87522","0.41001, 0.54883, 0.79353","0.54118, 0.65098, 0.81961","0.48627, 0.6, 0.78824","0.39516, 0.52728, 0.76134","0.50889, 0.63012, 0.83447","0.4494, 0.57426, 0.79097",What is the color of the sky in the previous image?,2022-03-18_13h28.33.481,Representative Color,2021.2.3,MacIntel,60.0024001,,,,,,
,,,,,,,,0.074613359,-0.171555498,1,0,0,2.4199,eighthChoice,7,"0.56078, 0.3451, 0.23529",8,0,11,11,3,1,resources/t4Model-A.png,"0.60784, 0.39216, 0.26667","0.59216, 0.31765, 0.21569","0.66468, 0.4273, 0.28886","0.64755, 0.3451, 0.23286","0.72157, 0.47059, 0.33333","0.42353, 0.18824, 0.094118","0.50588, 0.29804, 0.19608","0.56078, 0.3451, 0.23529",What is the color of the person's skin in the previous image?,2022-03-18_13h28.33.481,Representative Color,2021.2.3,MacIntel,60.0024001,,,,,,
,,,,,,,,0.151018863,-0.050682237,1,0,0,2.7833,sixthChoice,5,"0.78605, 0.55541, 0.43138",3,0,12,12,8,1,resources/t4Model-M.png,"0.72549, 0.51373, 0.4","0.65098, 0.35294, 0.25098","0.78605, 0.55541, 0.43138","0.68985, 0.4335, 0.3243","0.6843, 0.46832, 0.35448","0.71971, 0.45365, 0.33937","0.73744, 0.47932, 0.37149","0.71412, 0.48874, 0.36979",What is the color of the person's skin in the previous image?,2022-03-18_13h28.33.481,Representative Color,2021.2.3,MacIntel,60.0024001,,,,,,
,,,,,,,,0.096787686,0.17023557,1,0,0,1.4514,secondChoice,1,"0.38431, 0.14902, 0.047059",4,0,13,13,9,1,resources/t4Model-O.png,"0.31765, 0.15686, 0.090196","0.36342, 0.17598, 0.098248","0.55928, 0.25965, 0.13367","0.38431, 0.14902, 0.047059","0.22745, 0.098039, 0.05098","0.27161, 0.12707, 0.072951","0.41066, 0.19954, 0.10607","0.30444, 0.12352, 0.051246",What is the color of the person's skin in the previous image?,2022-03-18_13h28.33.481,Representative Color,2021.2.3,MacIntel,60.0024001,,,,,,
,,,,,,,,-0.011462233,-0.169960997,1,0,0,2.4561,seventhChoice,6,"0.34118, 0.023529, 0.05098",2,0,14,14,1,1,resources/t4DSC_0021.png,"0.16863, 0.027451, 0.035294","0.34118, 0.023529, 0.05098","0.37836, 0.0080068, 0.055199","0.37255, 0.12157, 0.18431","0.34902, 0.043137, 0.094118","0.41569, 0.23529, 0.29804","0.21569, 0.0078431, 0.019608","0.44314, 0.16863, 0.21961",What is the color of the wine in the previous image?,2022-03-18_13h28.33.481,Representative Color,2021.2.3,MacIntel,60.0024001,,,,,,
,,,,,,,,0.069073402,-0.204013231,1,0,0,3.1737,eighthChoice,7,"0.33333, 0.019608, 0.031373",6,0,15,15,2,1,resources/t4DSC_0025.png,"0.39608, 0.058824, 0.070588","0.21431, 0.034629, 0.057098","0.43656, 0.051112, 0.07439","0.51373, 0.35294, 0.40784","0.21961, 0.086275, 0.12549","0.33333, 0.019608, 0.031373","0.36078, 0.26667, 0.32157","0.48235, 0.22745, 0.26275",What is the color of the wine in the previous image?,2022-03-18_13h28.33.481,Representative Color,2021.2.3,MacIntel,60.0024001,,,,,,
,,,,,,,,-0.152992588,-0.041875627,1,0,0,4.1275,fifthChoice,4,"0.30588, 0.12549, 0.043137",8,0,16,16,14,1,resources/t4Model-yl.png,"0.43529, 0.22353, 0.12157","0.48425, 0.24604, 0.13103","0.74365, 0.40389, 0.19507","0.56078, 0.26667, 0.1451","0.35294, 0.16078, 0.070588","0.6, 0.35294, 0.22353","0.55294, 0.31373, 0.19216","0.30588, 0.12549, 0.043137",What is the color of the person's skin in the previous image?,2022-03-18_13h28.33.481,Representative Color,2021.2.3,MacIntel,60.0024001,,,,,,
,,,,,,,,-0.133884854,0.078736072,1,0,0,2.7517,thirdChoice,2,"0.72941, 0.36471, 0.19608",7,0,17,17,16,1,resources/t4mysteryLightOr_hdrOff.png,"0.81569, 0.43922, 0.22353","0.8714, 0.46756, 0.23566","0.91794, 0.40919, 0.093393","0.77255, 0.29804, 0.07451","0.9098, 0.55294, 0.30196","0.88627, 0.50196, 0.23922","0.72941, 0.36471, 0.19608","0.81569, 0.36863, 0.13333",What is the color of the tomato in the previous image?,2022-03-18_13h28.33.481,Representative Color,2021.2.3,MacIntel,60.0024001,,,,,,
,,,,,,,,0.079932064,-0.140267012,1,0,0,2.1679,eighthChoice,7,"0.52549, 0.2902, 0.16471",1,0,18,18,6,1,resources/t4Model-L.png,"0.52549, 0.2902, 0.16471","0.61569, 0.30588, 0.18039","0.57757, 0.31686, 0.1774","0.66902, 0.33001, 0.19272","0.47843, 0.25098, 0.13333","0.65882, 0.4, 0.25882","0.61176, 0.36078, 0.23137","0.41961, 0.20784, 0.094118",What is the color of the person's skin in the previous image?,2022-03-18_13h28.33.481,Representative Color,2021.2.3,MacIntel,60.0024001,,,,,,
,,,,,,,,-0.043710581,0.145659553,1,0,0,2.8218,firstChoice,0,"0.34895, 0.44055, 0.21071",7,0,19,19,19,1,resources/t4zgrass.png,"0.30588, 0.41569, 0.18824","0.36341, 0.42546, 0.21823","0.33318, 0.45547, 0.20282","0.32157, 0.38039, 0.19216","0.27231, 0.37211, 0.15269","0.31422, 0.39807, 0.19031","0.34895, 0.44055, 0.21071","0.28046, 0.35484, 0.15506",What is the color of the grass in the previous image?,2022-03-18_13h28.33.481,Representative Color,2021.2.3,MacIntel,60.0024001,,,,,,
,,,,,,,,,,,,,,,,,,,,,,,,,,,,,,,,,2022-03-18_13h28.33.481,Representative Color,2021.2.3,MacIntel,60.0024001,0,4,4,4,1,resources/trialFull.xlsx
