textboxDate.text,textboxElectronicSignature.text,textboxAge.text,textboxInitials.text,sliderViewConditions.response,sliderColorScientist.response,sliderCVD.response,sliderGenderIdentification.response,mouseResponse.x,mouseResponse.y,mouseResponse.leftButton,mouseResponse.midButton,mouseResponse.rightButton,mouseResponse.time,mouseResponse.clicked_name,mouseResponseLocation,choiceColor,choiceIndex,trialsStimuli.thisRepN,trialsStimuli.thisTrialN,trialsStimuli.thisN,trialsStimuli.thisIndex,trialsStimuli.ran,File_Name,color1,color2,color3,color4,color5,color6,color7,color8,Question,date,expName,psychopyVersion,OS,frameRate,trialsBlock.thisRepN,trialsBlock.thisTrialN,trialsBlock.thisN,trialsBlock.thisIndex,trialsBlock.ran,cond_file
"10/13/22
",5BF031CA5722D609FB225A51EAE387D1757F33A7,23,,2,2,2,1,0.1959552,-0.008909539,1,0,0,3.5251,sixthChoice,5,"0.40784, 0.070588, 0.070588",1,0,0,0,0,1,resources/test_wine.png,"0.40784, 0.070588, 0.070588","0.6, 0.043137, 0.035294","0.44887, 0.066156, 0.074042","0.49412, 0.090196, 0.062745","0.53725, 0.011765, 0.0078431","0.30196, 0.066667, 0.062745","0.35427, 0.069613, 0.067232","0.41756, 0.054997, 0.039926",What is the color of the previous image?,2022-03-02_12h24.55.026,Representative Color,2021.2.3,MacIntel,59.99160118,,,,,,
,,,,,,,,0.167890964,0.045141805,1,0,0,2.5488,fourthChoice,3,"0.26275, 0.46667, 0.76863",1,0,1,1,2,1,resources/test_sky.png,"0.26275, 0.46667, 0.76863","0.2, 0.35686, 0.6902","0.27689, 0.50341, 0.83205","0.21961, 0.41176, 0.72157","0.2415, 0.43907, 0.74504","0.21025, 0.38424, 0.70588","0.35291, 0.58434, 0.85098","0.42745, 0.60784, 0.84314",What is the color of the previous image?,2022-03-02_12h24.55.026,Representative Color,2021.2.3,MacIntel,59.99160118,,,,,,
,,,,,,,,0.190477973,0.055012987,1,0,0,1.9284,fourthChoice,3,"0.86089, 0.28874, 0.19361",3,0,2,2,3,1,resources/test_tomato_red.png,"0.80784, 0.27451, 0.18431","0.84314, 0.21961, 0.10196","0.86089, 0.28874, 0.19361","0.88235, 0.33333, 0.21176","0.74118, 0.22745, 0.16863","0.79608, 0.21569, 0.12941","0.77439, 0.25104, 0.17647","0.85235, 0.25555, 0.14958",What is the color of the tomato in the previous image?,2022-03-02_12h24.55.026,Representative Color,2021.2.3,MacIntel,59.99160118,,,,,,
,,,,,,,,-0.182426758,0.038861457,1,0,0,1.6316,thirdChoice,2,"0.53942, 0.56976, 0.20711",3,0,3,3,1,1,resources/test_tomato_green.png,"0.50196, 0.52941, 0.19608","0.57255, 0.58431, 0.12549","0.53942, 0.56976, 0.20711","0.6093, 0.62259, 0.12696","0.68627, 0.71373, 0.26667","0.4549, 0.49412, 0.11765","0.61961, 0.64314, 0.26667","0.37647, 0.41569, 0.12941",What is the color of the previous image?,2022-03-02_12h24.55.026,Representative Color,2021.2.3,MacIntel,59.99160118,,,,,,
,,,,,,,,,,,,,,,,,,,,,,,,,,,,,,,,,2022-03-02_12h24.55.026,Representative Color,2021.2.3,MacIntel,59.99160118,0,0,0,0,1,resources/training.xlsx
,,,,,,,,-0.164706217,0.057807685,1,0,0,1.6827,thirdChoice,2,"0.79859, 0.58507, 0.48676",2,0,0,0,4,1,resources/t1Model-B.png,"0.73725, 0.54118, 0.45098","0.79859, 0.58507, 0.48676","0.72531, 0.40323, 0.30464","0.71373, 0.40784, 0.36078","0.8, 0.48235, 0.4","0.68235, 0.44314, 0.33333","0.64706, 0.45882, 0.36471","0.71765, 0.49804, 0.41176",What is the color of the previous image?,2022-03-02_12h24.55.026,Representative Color,2021.2.3,MacIntel,59.99160118,,,,,,
,,,,,,,,0.049571465,0.135492893,1,0,0,1.9322,secondChoice,1,"0.43529, 0.22353, 0.12157",1,0,1,1,14,1,resources/t1Model-yl.png,"0.43529, 0.22353, 0.12157","0.48425, 0.24604, 0.13103","0.74365, 0.40389, 0.19507","0.56078, 0.26667, 0.1451","0.35294, 0.16078, 0.070588","0.6, 0.35294, 0.22353","0.55294, 0.31373, 0.19216","0.30588, 0.12549, 0.043137",What is the color of the previous image?,2022-03-02_12h24.55.026,Representative Color,2021.2.3,MacIntel,59.99160118,,,,,,
,,,,,,,,-0.152615424,-0.071000366,1,0,0,1.2644,fifthChoice,4,"0.66275, 0.4, 0.21961",2,0,2,2,13,1,resources/t1Model-ll.png,"0.59608, 0.36863, 0.23137","0.66275, 0.4, 0.21961","0.71741, 0.4315, 0.23453","0.65882, 0.43137, 0.29412","0.62936, 0.38426, 0.22577","0.54887, 0.3251, 0.1898","0.68099, 0.43522, 0.27061","0.58137, 0.34036, 0.18379",What is the color of the previous image?,2022-03-02_12h24.55.026,Representative Color,2021.2.3,MacIntel,59.99160118,,,,,,
,,,,,,,,0.084555732,0.155619778,1,0,0,1.7491,secondChoice,1,"0.52549, 0.2902, 0.16471",1,0,3,3,6,1,resources/t1Model-L.png,"0.52549, 0.2902, 0.16471","0.61569, 0.30588, 0.18039","0.57757, 0.31686, 0.1774","0.66902, 0.33001, 0.19272","0.47843, 0.25098, 0.13333","0.65882, 0.4, 0.25882","0.61176, 0.36078, 0.23137","0.41961, 0.20784, 0.094118",What is the color of the previous image?,2022-03-02_12h24.55.026,Representative Color,2021.2.3,MacIntel,59.99160118,,,,,,
,,,,,,,,0.040167982,-0.180698107,1,0,0,1.8497,eighthChoice,7,"0.64755, 0.3451, 0.23286",4,0,4,4,3,1,resources/t1Model-A.png,"0.60784, 0.39216, 0.26667","0.59216, 0.31765, 0.21569","0.66468, 0.4273, 0.28886","0.64755, 0.3451, 0.23286","0.72157, 0.47059, 0.33333","0.42353, 0.18824, 0.094118","0.50588, 0.29804, 0.19608","0.56078, 0.3451, 0.23529",What is the color of the previous image?,2022-03-02_12h24.55.026,Representative Color,2021.2.3,MacIntel,59.99160118,,,,,,
,,,,,,,,-0.053035482,0.166297607,1,0,0,1.6491,firstChoice,0,"0.91794, 0.40919, 0.093393",3,0,5,5,16,1,resources/t1mysteryLightOr_hdrOff.png,"0.81569, 0.43922, 0.22353","0.8714, 0.46756, 0.23566","0.91794, 0.40919, 0.093393","0.77255, 0.29804, 0.07451","0.9098, 0.55294, 0.30196","0.88627, 0.50196, 0.23922","0.72941, 0.36471, 0.19608","0.81569, 0.36863, 0.13333",What is the color of the previous image?,2022-03-02_12h24.55.026,Representative Color,2021.2.3,MacIntel,59.99160118,,,,,,
,,,,,,,,0.185795492,-0.047007107,1,0,0,2.0482,sixthChoice,5,"0.41001, 0.54883, 0.79353",3,0,6,6,18,1,resources/t1sky.png,"0.38039, 0.50588, 0.72941","0.60278, 0.71367, 0.87522","0.41001, 0.54883, 0.79353","0.54118, 0.65098, 0.81961","0.48627, 0.6, 0.78824","0.39516, 0.52728, 0.76134","0.50889, 0.63012, 0.83447","0.4494, 0.57426, 0.79097",What is the color of the previous image?,2022-03-02_12h24.55.026,Representative Color,2021.2.3,MacIntel,59.99160118,,,,,,
,,,,,,,,-0.059878676,0.162919345,1,0,0,40.2213,firstChoice,0,"0.69412, 0.4, 0.24314",6,0,7,7,10,1,resources/t1Model-Ol.png,"0.69412, 0.47451, 0.35294","0.7537, 0.51393, 0.381","0.75045, 0.43076, 0.25995","0.56863, 0.2902, 0.18039","0.52941, 0.28235, 0.15294","0.69412, 0.4, 0.24314","0.79608, 0.58039, 0.45098","0.58431, 0.37255, 0.24706",What is the color of the previous image?,2022-03-02_12h24.55.026,Representative Color,2021.2.3,MacIntel,59.99160118,,,,,,
,,,,,,,,-0.029097833,0.171335008,1,0,0,1.632,firstChoice,0,"0.6843, 0.46832, 0.35448",5,0,8,8,8,1,resources/t1Model-M.png,"0.72549, 0.51373, 0.4","0.65098, 0.35294, 0.25098","0.78605, 0.55541, 0.43138","0.68985, 0.4335, 0.3243","0.6843, 0.46832, 0.35448","0.71971, 0.45365, 0.33937","0.73744, 0.47932, 0.37149","0.71412, 0.48874, 0.36979",What is the color of the previous image?,2022-03-02_12h24.55.026,Representative Color,2021.2.3,MacIntel,59.99160118,,,,,,
,,,,,,,,-0.04998013,-0.167230632,1,0,0,1.9995,seventhChoice,6,"0.21431, 0.034629, 0.057098",2,0,9,9,2,1,resources/t1DSC_0025.png,"0.39608, 0.058824, 0.070588","0.21431, 0.034629, 0.057098","0.43656, 0.051112, 0.07439","0.51373, 0.35294, 0.40784","0.21961, 0.086275, 0.12549","0.33333, 0.019608, 0.031373","0.36078, 0.26667, 0.32157","0.48235, 0.22745, 0.26275",What is the color of the previous image?,2022-03-02_12h24.55.026,Representative Color,2021.2.3,MacIntel,59.99160118,,,,,,
,,,,,,,,-0.210976698,0.100828315,1,0,0,2.6002,thirdChoice,2,"0.37836, 0.0080068, 0.055199",3,0,10,10,1,1,resources/t1DSC_0021.png,"0.16863, 0.027451, 0.035294","0.34118, 0.023529, 0.05098","0.37836, 0.0080068, 0.055199","0.37255, 0.12157, 0.18431","0.34902, 0.043137, 0.094118","0.41569, 0.23529, 0.29804","0.21569, 0.0078431, 0.019608","0.44314, 0.16863, 0.21961",What is the color of the previous image?,2022-03-02_12h24.55.026,Representative Color,2021.2.3,MacIntel,59.99160118,,,,,,
,,,,,,,,0.143638238,0.034887085,1,0,0,1.0474,fourthChoice,3,"0.60078, 0.30229, 0.16803",4,0,11,11,11,1,resources/t1Model-R.png,"0.56863, 0.34902, 0.22353","0.54902, 0.27843, 0.15686","0.62375, 0.38114, 0.24213","0.60078, 0.30229, 0.16803","0.48235, 0.24314, 0.13333","0.65098, 0.41176, 0.28235","0.49412, 0.28627, 0.16471","0.54118, 0.31373, 0.19216",What is the color of the previous image?,2022-03-02_12h24.55.026,Representative Color,2021.2.3,MacIntel,59.99160118,,,,,,
,,,,,,,,-0.033090617,-0.168844604,1,0,0,4.2998,seventhChoice,6,"0.64714, 0.32317, 0.22415",3,0,12,12,12,1,resources/t1Model-Y.png,"0.72941, 0.52157, 0.4","0.78972, 0.56355, 0.43105","0.64714, 0.32317, 0.22415","0.62353, 0.34902, 0.22353","0.59216, 0.29804, 0.20784","0.6902, 0.47843, 0.36471","0.80392, 0.60392, 0.49412","0.60784, 0.39216, 0.26275",What is the color of the previous image?,2022-03-02_12h24.55.026,Representative Color,2021.2.3,MacIntel,59.99160118,,,,,,
,,,,,,,,0.174621379,-0.069747586,1,0,0,1.232,sixthChoice,5,"0.38431, 0.14902, 0.047059",4,0,13,13,9,1,resources/t1Model-O.png,"0.31765, 0.15686, 0.090196","0.36342, 0.17598, 0.098248","0.55928, 0.25965, 0.13367","0.38431, 0.14902, 0.047059","0.22745, 0.098039, 0.05098","0.27161, 0.12707, 0.072951","0.41066, 0.19954, 0.10607","0.30444, 0.12352, 0.051246",What is the color of the previous image?,2022-03-02_12h24.55.026,Representative Color,2021.2.3,MacIntel,59.99160118,,,,,,
,,,,,,,,-0.276973334,0.057047221,1,0,0,0.8321,thirdChoice,2,"0.60392, 0.60392, 0.55686",5,0,14,14,0,1,resources/t1DSC_0016.png,"0.6, 0.58039, 0.4549","0.6564, 0.64356, 0.5619","0.65167, 0.63033, 0.49287","0.60392, 0.59216, 0.50196","0.60392, 0.60392, 0.55686","0.62839, 0.6118, 0.50808","0.62574, 0.60526, 0.47382","0.60418, 0.59802, 0.5294",What is the color of the previous image?,2022-03-02_12h24.55.026,Representative Color,2021.2.3,MacIntel,59.99160118,,,,,,
,,,,,,,,-0.164793972,0.01071011,1,0,0,0.9152,thirdChoice,2,"0.60784, 0.52941, 0.18824",7,0,15,15,15,1,resources/t1green22days1_hdrOff.png,"0.68235, 0.57255, 0.20784","0.72549, 0.62353, 0.15686","0.76987, 0.66176, 0.16087","0.82745, 0.62745, 0.21569","0.70588, 0.53725, 0.12549","0.7451, 0.66275, 0.27451","0.60784, 0.52941, 0.18824","0.65098, 0.51373, 0.18824",What is the color of the previous image?,2022-03-02_12h24.55.026,Representative Color,2021.2.3,MacIntel,59.99160118,,,,,,
,,,,,,,,0.170741238,0.011793722,1,0,0,2.1997,fourthChoice,3,"0.52414, 0.27049, 0.13884",2,0,16,16,5,1,resources/t1Model-J.png,"0.74118, 0.41961, 0.23529","0.52414, 0.27049, 0.13884","0.79714, 0.44966, 0.25005","0.63529, 0.38824, 0.21569","0.70588, 0.43922, 0.2549","0.64314, 0.33725, 0.18431","0.56863, 0.32157, 0.19216","0.4549, 0.23137, 0.12157",What is the color of the previous image?,2022-03-02_12h24.55.026,Representative Color,2021.2.3,MacIntel,59.99160118,,,,,,
,,,,,,,,0.080022244,0.175244073,1,0,0,1.8653,secondChoice,1,"0.38255, 0.53277, 0.1372",7,0,17,17,17,1,resources/t1zpeppers.png,"0.35294, 0.47451, 0.15294","0.48235, 0.63529, 0.13725","0.37942, 0.51262, 0.16068","0.5104, 0.6743, 0.13948","0.41176, 0.59216, 0.11373","0.417, 0.55383, 0.14817","0.38255, 0.53277, 0.1372","0.44713, 0.61369, 0.1255",What is the color of the previous image?,2022-03-02_12h24.55.026,Representative Color,2021.2.3,MacIntel,59.99160118,,,,,,
,,,,,,,,-0.078796997,0.157000699,1,0,0,1.3499,firstChoice,0,"0.32157, 0.38039, 0.19216",4,0,18,18,19,1,resources/t1zgrass.png,"0.30588, 0.41569, 0.18824","0.36341, 0.42546, 0.21823","0.33318, 0.45547, 0.20282","0.32157, 0.38039, 0.19216","0.27231, 0.37211, 0.15269","0.31422, 0.39807, 0.19031","0.34895, 0.44055, 0.21071","0.28046, 0.35484, 0.15506",What is the color of the previous image?,2022-03-02_12h24.55.026,Representative Color,2021.2.3,MacIntel,59.99160118,,,,,,
,,,,,,,,0.058893365,0.145066664,1,0,0,1.2316,secondChoice,1,"0.63529, 0.42353, 0.27451",8,0,19,19,7,1,resources/t1Model-LC.png,"0.73725, 0.52941, 0.38431","0.79679, 0.57109, 0.41322","0.66488, 0.37758, 0.19682","0.58431, 0.32157, 0.18431","0.61176, 0.34902, 0.18431","0.68627, 0.47059, 0.32941","0.81569, 0.61176, 0.47843","0.63529, 0.42353, 0.27451",What is the color of the previous image?,2022-03-02_12h24.55.026,Representative Color,2021.2.3,MacIntel,59.99160118,,,,,,
,,,,,,,,,,,,,,,,,,,,,,,,,,,,,,,,,2022-03-02_12h24.55.026,Representative Color,2021.2.3,MacIntel,59.99160118,0,1,1,1,1,resources/trialScramble.xlsx
,,,,,,,,0.20475647,0.0355739,1,0,0,0.8993,fourthChoice,3,"0.79608, 0.58039, 0.45098",7,0,0,0,10,1,resources/t2Model-Ol.png,"0.69412, 0.47451, 0.35294","0.7537, 0.51393, 0.381","0.75045, 0.43076, 0.25995","0.56863, 0.2902, 0.18039","0.52941, 0.28235, 0.15294","0.69412, 0.4, 0.24314","0.79608, 0.58039, 0.45098","0.58431, 0.37255, 0.24706",What is the color of the previous image?,2022-03-02_12h24.55.026,Representative Color,2021.2.3,MacIntel,59.99160118,,,,,,
,,,,,,,,0.173594971,-0.060299581,1,0,0,2.5485,sixthChoice,5,"0.54118, 0.65098, 0.81961",4,0,1,1,18,1,resources/t2sky.png,"0.38039, 0.50588, 0.72941","0.60278, 0.71367, 0.87522","0.41001, 0.54883, 0.79353","0.54118, 0.65098, 0.81961","0.48627, 0.6, 0.78824","0.39516, 0.52728, 0.76134","0.50889, 0.63012, 0.83447","0.4494, 0.57426, 0.79097",What is the color of the previous image?,2022-03-02_12h24.55.026,Representative Color,2021.2.3,MacIntel,59.99160118,,,,,,
,,,,,,,,-0.19166687,0.049650336,1,0,0,1.0661,thirdChoice,2,"0.48425, 0.24604, 0.13103",2,0,2,2,14,1,resources/t2Model-yl.png,"0.43529, 0.22353, 0.12157","0.48425, 0.24604, 0.13103","0.74365, 0.40389, 0.19507","0.56078, 0.26667, 0.1451","0.35294, 0.16078, 0.070588","0.6, 0.35294, 0.22353","0.55294, 0.31373, 0.19216","0.30588, 0.12549, 0.043137",What is the color of the previous image?,2022-03-02_12h24.55.026,Representative Color,2021.2.3,MacIntel,59.99160118,,,,,,
,,,,,,,,0.163445502,-0.103582425,1,0,0,0.882,sixthChoice,5,"0.72157, 0.47059, 0.33333",5,0,3,3,3,1,resources/t2Model-A.png,"0.60784, 0.39216, 0.26667","0.59216, 0.31765, 0.21569","0.66468, 0.4273, 0.28886","0.64755, 0.3451, 0.23286","0.72157, 0.47059, 0.33333","0.42353, 0.18824, 0.094118","0.50588, 0.29804, 0.19608","0.56078, 0.3451, 0.23529",What is the color of the previous image?,2022-03-02_12h24.55.026,Representative Color,2021.2.3,MacIntel,59.99160118,,,,,,
,,,,,,,,0.146667141,-0.084048733,1,0,0,1.3812,sixthChoice,5,"0.70588, 0.53725, 0.12549",5,0,4,4,15,1,resources/t2green22days1_hdrOff.png,"0.68235, 0.57255, 0.20784","0.72549, 0.62353, 0.15686","0.76987, 0.66176, 0.16087","0.82745, 0.62745, 0.21569","0.70588, 0.53725, 0.12549","0.7451, 0.66275, 0.27451","0.60784, 0.52941, 0.18824","0.65098, 0.51373, 0.18824",What is the color of the previous image?,2022-03-02_12h24.55.026,Representative Color,2021.2.3,MacIntel,59.99160118,,,,,,
,,,,,,,,0.207087945,0.046383091,1,0,0,0.9825,fourthChoice,3,"0.79679, 0.57109, 0.41322",2,0,5,5,7,1,resources/t2Model-LC.png,"0.73725, 0.52941, 0.38431","0.79679, 0.57109, 0.41322","0.66488, 0.37758, 0.19682","0.58431, 0.32157, 0.18431","0.61176, 0.34902, 0.18431","0.68627, 0.47059, 0.32941","0.81569, 0.61176, 0.47843","0.63529, 0.42353, 0.27451",What is the color of the previous image?,2022-03-02_12h24.55.026,Representative Color,2021.2.3,MacIntel,59.99160118,,,,,,
,,,,,,,,0.186389567,-0.068702596,1,0,0,1.1491,sixthChoice,5,"0.6902, 0.47843, 0.36471",6,0,6,6,12,1,resources/t2Model-Y.png,"0.72941, 0.52157, 0.4","0.78972, 0.56355, 0.43105","0.64714, 0.32317, 0.22415","0.62353, 0.34902, 0.22353","0.59216, 0.29804, 0.20784","0.6902, 0.47843, 0.36471","0.80392, 0.60392, 0.49412","0.60784, 0.39216, 0.26275",What is the color of the previous image?,2022-03-02_12h24.55.026,Representative Color,2021.2.3,MacIntel,59.99160118,,,,,,
,,,,,,,,0.14849311,-0.02998881,1,0,0,1.4323,sixthChoice,5,"0.34902, 0.043137, 0.094118",5,0,7,7,1,1,resources/t2DSC_0021.png,"0.16863, 0.027451, 0.035294","0.34118, 0.023529, 0.05098","0.37836, 0.0080068, 0.055199","0.37255, 0.12157, 0.18431","0.34902, 0.043137, 0.094118","0.41569, 0.23529, 0.29804","0.21569, 0.0078431, 0.019608","0.44314, 0.16863, 0.21961",What is the color of the previous image?,2022-03-02_12h24.55.026,Representative Color,2021.2.3,MacIntel,59.99160118,,,,,,
,,,,,,,,-0.18072659,-0.079210341,1,0,0,1.1827,fifthChoice,4,"0.71971, 0.45365, 0.33937",6,0,8,8,8,1,resources/t2Model-M.png,"0.72549, 0.51373, 0.4","0.65098, 0.35294, 0.25098","0.78605, 0.55541, 0.43138","0.68985, 0.4335, 0.3243","0.6843, 0.46832, 0.35448","0.71971, 0.45365, 0.33937","0.73744, 0.47932, 0.37149","0.71412, 0.48874, 0.36979",What is the color of the previous image?,2022-03-02_12h24.55.026,Representative Color,2021.2.3,MacIntel,59.99160118,,,,,,
,,,,,,,,0.168224691,-0.045206367,1,0,0,1.3498,sixthChoice,5,"0.52414, 0.27049, 0.13884",2,0,9,9,5,1,resources/t2Model-J.png,"0.74118, 0.41961, 0.23529","0.52414, 0.27049, 0.13884","0.79714, 0.44966, 0.25005","0.63529, 0.38824, 0.21569","0.70588, 0.43922, 0.2549","0.64314, 0.33725, 0.18431","0.56863, 0.32157, 0.19216","0.4549, 0.23137, 0.12157",What is the color of the previous image?,2022-03-02_12h24.55.026,Representative Color,2021.2.3,MacIntel,59.99160118,,,,,,
,,,,,,,,-0.036300591,-0.1908589,1,0,0,1.1473,seventhChoice,6,"0.43656, 0.051112, 0.07439",3,0,10,10,2,1,resources/t2DSC_0025.png,"0.39608, 0.058824, 0.070588","0.21431, 0.034629, 0.057098","0.43656, 0.051112, 0.07439","0.51373, 0.35294, 0.40784","0.21961, 0.086275, 0.12549","0.33333, 0.019608, 0.031373","0.36078, 0.26667, 0.32157","0.48235, 0.22745, 0.26275",What is the color of the previous image?,2022-03-02_12h24.55.026,Representative Color,2021.2.3,MacIntel,59.99160118,,,,,,
,,,,,,,,-0.048772786,0.147788798,1,0,0,0.8662,firstChoice,0,"0.8, 0.48235, 0.4",5,0,11,11,4,1,resources/t2Model-B.png,"0.73725, 0.54118, 0.45098","0.79859, 0.58507, 0.48676","0.72531, 0.40323, 0.30464","0.71373, 0.40784, 0.36078","0.8, 0.48235, 0.4","0.68235, 0.44314, 0.33333","0.64706, 0.45882, 0.36471","0.71765, 0.49804, 0.41176",What is the color of the previous image?,2022-03-02_12h24.55.026,Representative Color,2021.2.3,MacIntel,59.99160118,,,,,,
,,,,,,,,-0.179311659,-0.049816013,1,0,0,1.3989,fifthChoice,4,"0.38255, 0.53277, 0.1372",7,0,12,12,17,1,resources/t2zpeppers.png,"0.35294, 0.47451, 0.15294","0.48235, 0.63529, 0.13725","0.37942, 0.51262, 0.16068","0.5104, 0.6743, 0.13948","0.41176, 0.59216, 0.11373","0.417, 0.55383, 0.14817","0.38255, 0.53277, 0.1372","0.44713, 0.61369, 0.1255",What is the color of the previous image?,2022-03-02_12h24.55.026,Representative Color,2021.2.3,MacIntel,59.99160118,,,,,,
,,,,,,,,-0.160244751,-0.060307448,1,0,0,1.3989,fifthChoice,4,"0.30588, 0.41569, 0.18824",1,0,13,13,19,1,resources/t2zgrass.png,"0.30588, 0.41569, 0.18824","0.36341, 0.42546, 0.21823","0.33318, 0.45547, 0.20282","0.32157, 0.38039, 0.19216","0.27231, 0.37211, 0.15269","0.31422, 0.39807, 0.19031","0.34895, 0.44055, 0.21071","0.28046, 0.35484, 0.15506",What is the color of the previous image?,2022-03-02_12h24.55.026,Representative Color,2021.2.3,MacIntel,59.99160118,,,,,,
,,,,,,,,0.157171224,0.075521478,1,0,0,0.8489,fourthChoice,3,"0.60392, 0.60392, 0.55686",5,0,14,14,0,1,resources/t2DSC_0016.png,"0.6, 0.58039, 0.4549","0.6564, 0.64356, 0.5619","0.65167, 0.63033, 0.49287","0.60392, 0.59216, 0.50196","0.60392, 0.60392, 0.55686","0.62839, 0.6118, 0.50808","0.62574, 0.60526, 0.47382","0.60418, 0.59802, 0.5294",What is the color of the previous image?,2022-03-02_12h24.55.026,Representative Color,2021.2.3,MacIntel,59.99160118,,,,,,
,,,,,,,,-0.200768026,-0.030463155,1,0,0,0.8819,fifthChoice,4,"0.60078, 0.30229, 0.16803",4,0,15,15,11,1,resources/t2Model-R.png,"0.56863, 0.34902, 0.22353","0.54902, 0.27843, 0.15686","0.62375, 0.38114, 0.24213","0.60078, 0.30229, 0.16803","0.48235, 0.24314, 0.13333","0.65098, 0.41176, 0.28235","0.49412, 0.28627, 0.16471","0.54118, 0.31373, 0.19216",What is the color of the previous image?,2022-03-02_12h24.55.026,Representative Color,2021.2.3,MacIntel,59.99160118,,,,,,
,,,,,,,,-0.12814738,0.04581092,1,0,0,1.8477,thirdChoice,2,"0.81569, 0.36863, 0.13333",8,0,16,16,16,1,resources/t2mysteryLightOr_hdrOff.png,"0.81569, 0.43922, 0.22353","0.8714, 0.46756, 0.23566","0.91794, 0.40919, 0.093393","0.77255, 0.29804, 0.07451","0.9098, 0.55294, 0.30196","0.88627, 0.50196, 0.23922","0.72941, 0.36471, 0.19608","0.81569, 0.36863, 0.13333",What is the color of the previous image?,2022-03-02_12h24.55.026,Representative Color,2021.2.3,MacIntel,59.99160118,,,,,,
,,,,,,,,-0.046854519,0.156379869,1,0,0,1.2328,firstChoice,0,"0.71741, 0.4315, 0.23453",3,0,17,17,13,1,resources/t2Model-ll.png,"0.59608, 0.36863, 0.23137","0.66275, 0.4, 0.21961","0.71741, 0.4315, 0.23453","0.65882, 0.43137, 0.29412","0.62936, 0.38426, 0.22577","0.54887, 0.3251, 0.1898","0.68099, 0.43522, 0.27061","0.58137, 0.34036, 0.18379",What is the color of the previous image?,2022-03-02_12h24.55.026,Representative Color,2021.2.3,MacIntel,59.99160118,,,,,,
,,,,,,,,0.028662448,0.168857863,1,0,0,0.9655,secondChoice,1,"0.36342, 0.17598, 0.098248",2,0,18,18,9,1,resources/t2Model-O.png,"0.31765, 0.15686, 0.090196","0.36342, 0.17598, 0.098248","0.55928, 0.25965, 0.13367","0.38431, 0.14902, 0.047059","0.22745, 0.098039, 0.05098","0.27161, 0.12707, 0.072951","0.41066, 0.19954, 0.10607","0.30444, 0.12352, 0.051246",What is the color of the previous image?,2022-03-02_12h24.55.026,Representative Color,2021.2.3,MacIntel,59.99160118,,,,,,
,,,,,,,,-0.146282077,0.04036672,1,0,0,1.0494,thirdChoice,2,"0.65882, 0.4, 0.25882",6,0,19,19,6,1,resources/t2Model-L.png,"0.52549, 0.2902, 0.16471","0.61569, 0.30588, 0.18039","0.57757, 0.31686, 0.1774","0.66902, 0.33001, 0.19272","0.47843, 0.25098, 0.13333","0.65882, 0.4, 0.25882","0.61176, 0.36078, 0.23137","0.41961, 0.20784, 0.094118",What is the color of the previous image?,2022-03-02_12h24.55.026,Representative Color,2021.2.3,MacIntel,59.99160118,,,,,,
,,,,,,,,,,,,,,,,,,,,,,,,,,,,,,,,,2022-03-02_12h24.55.026,Representative Color,2021.2.3,MacIntel,59.99160118,0,2,2,2,1,resources/trialSixteen.xlsx
,,,,,,,,0.163303494,0.036229485,1,0,0,1.7154,fourthChoice,3,"0.39516, 0.52728, 0.76134",6,0,0,0,18,1,resources/t3sky.png,"0.38039, 0.50588, 0.72941","0.60278, 0.71367, 0.87522","0.41001, 0.54883, 0.79353","0.54118, 0.65098, 0.81961","0.48627, 0.6, 0.78824","0.39516, 0.52728, 0.76134","0.50889, 0.63012, 0.83447","0.4494, 0.57426, 0.79097",What is the color of the previous image?,2022-03-02_12h24.55.026,Representative Color,2021.2.3,MacIntel,59.99160118,,,,,,
,,,,,,,,0.055257026,-0.212808228,1,0,0,1.3318,eighthChoice,7,"0.33333, 0.019608, 0.031373",6,0,1,1,2,1,resources/t3DSC_0025.png,"0.39608, 0.058824, 0.070588","0.21431, 0.034629, 0.057098","0.43656, 0.051112, 0.07439","0.51373, 0.35294, 0.40784","0.21961, 0.086275, 0.12549","0.33333, 0.019608, 0.031373","0.36078, 0.26667, 0.32157","0.48235, 0.22745, 0.26275",What is the color of the previous image?,2022-03-02_12h24.55.026,Representative Color,2021.2.3,MacIntel,59.99160118,,,,,,
,,,,,,,,-0.157433811,0.052587721,1,0,0,2.4664,thirdChoice,2,"0.21569, 0.0078431, 0.019608",7,0,2,2,1,1,resources/t3DSC_0021.png,"0.16863, 0.027451, 0.035294","0.34118, 0.023529, 0.05098","0.37836, 0.0080068, 0.055199","0.37255, 0.12157, 0.18431","0.34902, 0.043137, 0.094118","0.41569, 0.23529, 0.29804","0.21569, 0.0078431, 0.019608","0.44314, 0.16863, 0.21961",What is the color of the previous image?,2022-03-02_12h24.55.026,Representative Color,2021.2.3,MacIntel,59.99160118,,,,,,
,,,,,,,,0.089937202,0.170312805,1,0,0,2.9141,secondChoice,1,"0.34895, 0.44055, 0.21071",7,0,3,3,19,1,resources/t3zgrass.png,"0.30588, 0.41569, 0.18824","0.36341, 0.42546, 0.21823","0.33318, 0.45547, 0.20282","0.32157, 0.38039, 0.19216","0.27231, 0.37211, 0.15269","0.31422, 0.39807, 0.19031","0.34895, 0.44055, 0.21071","0.28046, 0.35484, 0.15506",What is the color of the previous image?,2022-03-02_12h24.55.026,Representative Color,2021.2.3,MacIntel,59.99160118,,,,,,
,,,,,,,,0.074237807,-0.157884318,1,0,0,0.866,eighthChoice,7,"0.60392, 0.59216, 0.50196",4,0,4,4,0,1,resources/t3DSC_0016.png,"0.6, 0.58039, 0.4549","0.6564, 0.64356, 0.5619","0.65167, 0.63033, 0.49287","0.60392, 0.59216, 0.50196","0.60392, 0.60392, 0.55686","0.62839, 0.6118, 0.50808","0.62574, 0.60526, 0.47382","0.60418, 0.59802, 0.5294",What is the color of the previous image?,2022-03-02_12h24.55.026,Representative Color,2021.2.3,MacIntel,59.99160118,,,,,,
,,,,,,,,0.188131036,0.0442846,1,0,0,1.4831,fourthChoice,3,"0.7451, 0.66275, 0.27451",6,0,5,5,15,1,resources/t3green22days1_hdrOff.png,"0.68235, 0.57255, 0.20784","0.72549, 0.62353, 0.15686","0.76987, 0.66176, 0.16087","0.82745, 0.62745, 0.21569","0.70588, 0.53725, 0.12549","0.7451, 0.66275, 0.27451","0.60784, 0.52941, 0.18824","0.65098, 0.51373, 0.18824",What is the color of the previous image?,2022-03-02_12h24.55.026,Representative Color,2021.2.3,MacIntel,59.99160118,,,,,,
,,,,,,,,-0.177919583,0.043663296,1,0,0,0.8646,thirdChoice,2,"0.79608, 0.58039, 0.45098",7,0,6,6,10,1,resources/t3Model-Ol.png,"0.69412, 0.47451, 0.35294","0.7537, 0.51393, 0.381","0.75045, 0.43076, 0.25995","0.56863, 0.2902, 0.18039","0.52941, 0.28235, 0.15294","0.69412, 0.4, 0.24314","0.79608, 0.58039, 0.45098","0.58431, 0.37255, 0.24706",What is the color of the previous image?,2022-03-02_12h24.55.026,Representative Color,2021.2.3,MacIntel,59.99160118,,,,,,
,,,,,,,,0.038786553,0.1490291,1,0,0,1.0821,secondChoice,1,"0.52414, 0.27049, 0.13884",2,0,7,7,5,1,resources/t3Model-J.png,"0.74118, 0.41961, 0.23529","0.52414, 0.27049, 0.13884","0.79714, 0.44966, 0.25005","0.63529, 0.38824, 0.21569","0.70588, 0.43922, 0.2549","0.64314, 0.33725, 0.18431","0.56863, 0.32157, 0.19216","0.4549, 0.23137, 0.12157",What is the color of the previous image?,2022-03-02_12h24.55.026,Representative Color,2021.2.3,MacIntel,59.99160118,,,,,,
,,,,,,,,0.047282647,0.166732246,1,0,0,0.9146,secondChoice,1,"0.48235, 0.63529, 0.13725",2,0,8,8,17,1,resources/t3zpeppers.png,"0.35294, 0.47451, 0.15294","0.48235, 0.63529, 0.13725","0.37942, 0.51262, 0.16068","0.5104, 0.6743, 0.13948","0.41176, 0.59216, 0.11373","0.417, 0.55383, 0.14817","0.38255, 0.53277, 0.1372","0.44713, 0.61369, 0.1255",What is the color of the previous image?,2022-03-02_12h24.55.026,Representative Color,2021.2.3,MacIntel,59.99160118,,,,,,
,,,,,,,,0.098485379,0.160157471,1,0,0,0.8168,secondChoice,1,"0.78972, 0.56355, 0.43105",2,0,9,9,12,1,resources/t3Model-Y.png,"0.72941, 0.52157, 0.4","0.78972, 0.56355, 0.43105","0.64714, 0.32317, 0.22415","0.62353, 0.34902, 0.22353","0.59216, 0.29804, 0.20784","0.6902, 0.47843, 0.36471","0.80392, 0.60392, 0.49412","0.60784, 0.39216, 0.26275",What is the color of the previous image?,2022-03-02_12h24.55.026,Representative Color,2021.2.3,MacIntel,59.99160118,,,,,,
,,,,,,,,0.062340563,-0.152671848,1,0,0,0.7965,eighthChoice,7,"0.72157, 0.47059, 0.33333",5,0,10,10,3,1,resources/t3Model-A.png,"0.60784, 0.39216, 0.26667","0.59216, 0.31765, 0.21569","0.66468, 0.4273, 0.28886","0.64755, 0.3451, 0.23286","0.72157, 0.47059, 0.33333","0.42353, 0.18824, 0.094118","0.50588, 0.29804, 0.19608","0.56078, 0.3451, 0.23529",What is the color of the previous image?,2022-03-02_12h24.55.026,Representative Color,2021.2.3,MacIntel,59.99160118,,,,,,
,,,,,,,,0.076329346,0.158583679,1,0,0,1.4329,secondChoice,1,"0.38431, 0.14902, 0.047059",4,0,11,11,9,1,resources/t3Model-O.png,"0.31765, 0.15686, 0.090196","0.36342, 0.17598, 0.098248","0.55928, 0.25965, 0.13367","0.38431, 0.14902, 0.047059","0.22745, 0.098039, 0.05098","0.27161, 0.12707, 0.072951","0.41066, 0.19954, 0.10607","0.30444, 0.12352, 0.051246",What is the color of the previous image?,2022-03-02_12h24.55.026,Representative Color,2021.2.3,MacIntel,59.99160118,,,,,,
,,,,,,,,-0.036995443,-0.174459839,1,0,0,1.384,seventhChoice,6,"0.79679, 0.57109, 0.41322",2,0,12,12,7,1,resources/t3Model-LC.png,"0.73725, 0.52941, 0.38431","0.79679, 0.57109, 0.41322","0.66488, 0.37758, 0.19682","0.58431, 0.32157, 0.18431","0.61176, 0.34902, 0.18431","0.68627, 0.47059, 0.32941","0.81569, 0.61176, 0.47843","0.63529, 0.42353, 0.27451",What is the color of the previous image?,2022-03-02_12h24.55.026,Representative Color,2021.2.3,MacIntel,59.99160118,,,,,,
,,,,,,,,-0.156948039,0.04925215,1,0,0,1.2158,thirdChoice,2,"0.71741, 0.4315, 0.23453",3,0,13,13,13,1,resources/t3Model-ll.png,"0.59608, 0.36863, 0.23137","0.66275, 0.4, 0.21961","0.71741, 0.4315, 0.23453","0.65882, 0.43137, 0.29412","0.62936, 0.38426, 0.22577","0.54887, 0.3251, 0.1898","0.68099, 0.43522, 0.27061","0.58137, 0.34036, 0.18379",What is the color of the previous image?,2022-03-02_12h24.55.026,Representative Color,2021.2.3,MacIntel,59.99160118,,,,,,
,,,,,,,,0.163976034,0.0645008,1,0,0,1.3155,fourthChoice,3,"0.48425, 0.24604, 0.13103",2,0,14,14,14,1,resources/t3Model-yl.png,"0.43529, 0.22353, 0.12157","0.48425, 0.24604, 0.13103","0.74365, 0.40389, 0.19507","0.56078, 0.26667, 0.1451","0.35294, 0.16078, 0.070588","0.6, 0.35294, 0.22353","0.55294, 0.31373, 0.19216","0.30588, 0.12549, 0.043137",What is the color of the previous image?,2022-03-02_12h24.55.026,Representative Color,2021.2.3,MacIntel,59.99160118,,,,,,
,,,,,,,,-0.155172662,0.037557949,1,0,0,0.9318,thirdChoice,2,"0.79859, 0.58507, 0.48676",2,0,15,15,4,1,resources/t3Model-B.png,"0.73725, 0.54118, 0.45098","0.79859, 0.58507, 0.48676","0.72531, 0.40323, 0.30464","0.71373, 0.40784, 0.36078","0.8, 0.48235, 0.4","0.68235, 0.44314, 0.33333","0.64706, 0.45882, 0.36471","0.71765, 0.49804, 0.41176",What is the color of the previous image?,2022-03-02_12h24.55.026,Representative Color,2021.2.3,MacIntel,59.99160118,,,,,,
,,,,,,,,-0.159507378,0.040894301,1,0,0,0.9326,thirdChoice,2,"0.65882, 0.4, 0.25882",6,0,16,16,6,1,resources/t3Model-L.png,"0.52549, 0.2902, 0.16471","0.61569, 0.30588, 0.18039","0.57757, 0.31686, 0.1774","0.66902, 0.33001, 0.19272","0.47843, 0.25098, 0.13333","0.65882, 0.4, 0.25882","0.61176, 0.36078, 0.23137","0.41961, 0.20784, 0.094118",What is the color of the previous image?,2022-03-02_12h24.55.026,Representative Color,2021.2.3,MacIntel,59.99160118,,,,,,
,,,,,,,,-0.138360257,-0.057324117,1,0,0,1.1998,fifthChoice,4,"0.54118, 0.31373, 0.19216",8,0,17,17,11,1,resources/t3Model-R.png,"0.56863, 0.34902, 0.22353","0.54902, 0.27843, 0.15686","0.62375, 0.38114, 0.24213","0.60078, 0.30229, 0.16803","0.48235, 0.24314, 0.13333","0.65098, 0.41176, 0.28235","0.49412, 0.28627, 0.16471","0.54118, 0.31373, 0.19216",What is the color of the previous image?,2022-03-02_12h24.55.026,Representative Color,2021.2.3,MacIntel,59.99160118,,,,,,
,,,,,,,,-0.155675184,0.073531087,1,0,0,0.9991,thirdChoice,2,"0.8714, 0.46756, 0.23566",2,0,18,18,16,1,resources/t3mysteryLightOr_hdrOff.png,"0.81569, 0.43922, 0.22353","0.8714, 0.46756, 0.23566","0.91794, 0.40919, 0.093393","0.77255, 0.29804, 0.07451","0.9098, 0.55294, 0.30196","0.88627, 0.50196, 0.23922","0.72941, 0.36471, 0.19608","0.81569, 0.36863, 0.13333",What is the color of the previous image?,2022-03-02_12h24.55.026,Representative Color,2021.2.3,MacIntel,59.99160118,,,,,,
,,,,,,,,0.051565959,-0.167285495,1,0,0,1.4163,eighthChoice,7,"0.78605, 0.55541, 0.43138",3,0,19,19,8,1,resources/t3Model-M.png,"0.72549, 0.51373, 0.4","0.65098, 0.35294, 0.25098","0.78605, 0.55541, 0.43138","0.68985, 0.4335, 0.3243","0.6843, 0.46832, 0.35448","0.71971, 0.45365, 0.33937","0.73744, 0.47932, 0.37149","0.71412, 0.48874, 0.36979",What is the color of the previous image?,2022-03-02_12h24.55.026,Representative Color,2021.2.3,MacIntel,59.99160118,,,,,,
,,,,,,,,,,,,,,,,,,,,,,,,,,,,,,,,,2022-03-02_12h24.55.026,Representative Color,2021.2.3,MacIntel,59.99160118,0,3,3,3,1,resources/trialSixtyFour.xlsx
,,,,,,,,-0.148307631,-0.072597114,1,0,0,2.1976,fifthChoice,4,"0.34902, 0.043137, 0.094118",5,0,0,0,1,1,resources/t4DSC_0021.png,"0.16863, 0.027451, 0.035294","0.34118, 0.023529, 0.05098","0.37836, 0.0080068, 0.055199","0.37255, 0.12157, 0.18431","0.34902, 0.043137, 0.094118","0.41569, 0.23529, 0.29804","0.21569, 0.0078431, 0.019608","0.44314, 0.16863, 0.21961",What is the color of the wine in the previous image?,2022-03-02_12h24.55.026,Representative Color,2021.2.3,MacIntel,59.99160118,,,,,,
,,,,,,,,0.060031399,-0.179546644,1,0,0,0.7973,eighthChoice,7,"0.79859, 0.58507, 0.48676",2,0,1,1,4,1,resources/t4Model-B.png,"0.73725, 0.54118, 0.45098","0.79859, 0.58507, 0.48676","0.72531, 0.40323, 0.30464","0.71373, 0.40784, 0.36078","0.8, 0.48235, 0.4","0.68235, 0.44314, 0.33333","0.64706, 0.45882, 0.36471","0.71765, 0.49804, 0.41176",What is the color of the person's skin in the previous image?,2022-03-02_12h24.55.026,Representative Color,2021.2.3,MacIntel,59.99160118,,,,,,
,,,,,,,,-0.032008192,-0.153850844,1,0,0,2.9144,seventhChoice,6,"0.34895, 0.44055, 0.21071",7,0,2,2,19,1,resources/t4zgrass.png,"0.30588, 0.41569, 0.18824","0.36341, 0.42546, 0.21823","0.33318, 0.45547, 0.20282","0.32157, 0.38039, 0.19216","0.27231, 0.37211, 0.15269","0.31422, 0.39807, 0.19031","0.34895, 0.44055, 0.21071","0.28046, 0.35484, 0.15506",What is the color of the grass in the previous image?,2022-03-02_12h24.55.026,Representative Color,2021.2.3,MacIntel,59.99160118,,,,,,
,,,,,,,,0.164836697,0.050159064,1,0,0,0.8325,fourthChoice,3,"0.73744, 0.47932, 0.37149",7,0,3,3,8,1,resources/t4Model-M.png,"0.72549, 0.51373, 0.4","0.65098, 0.35294, 0.25098","0.78605, 0.55541, 0.43138","0.68985, 0.4335, 0.3243","0.6843, 0.46832, 0.35448","0.71971, 0.45365, 0.33937","0.73744, 0.47932, 0.37149","0.71412, 0.48874, 0.36979",What is the color of the person's skin in the previous image?,2022-03-02_12h24.55.026,Representative Color,2021.2.3,MacIntel,59.99160118,,,,,,
,,,,,,,,0.170763685,-0.057458666,1,0,0,0.8996,sixthChoice,5,"0.72941, 0.52157, 0.4",1,0,4,4,12,1,resources/t4Model-Y.png,"0.72941, 0.52157, 0.4","0.78972, 0.56355, 0.43105","0.64714, 0.32317, 0.22415","0.62353, 0.34902, 0.22353","0.59216, 0.29804, 0.20784","0.6902, 0.47843, 0.36471","0.80392, 0.60392, 0.49412","0.60784, 0.39216, 0.26275",What is the color of the person's skin in the previous image?,2022-03-02_12h24.55.026,Representative Color,2021.2.3,MacIntel,59.99160118,,,,,,
,,,,,,,,-0.030095147,0.141507772,1,0,0,1.4156,firstChoice,0,"0.52549, 0.2902, 0.16471",1,0,5,5,6,1,resources/t4Model-L.png,"0.52549, 0.2902, 0.16471","0.61569, 0.30588, 0.18039","0.57757, 0.31686, 0.1774","0.66902, 0.33001, 0.19272","0.47843, 0.25098, 0.13333","0.65882, 0.4, 0.25882","0.61176, 0.36078, 0.23137","0.41961, 0.20784, 0.094118",What is the color of the person's skin in the previous image?,2022-03-02_12h24.55.026,Representative Color,2021.2.3,MacIntel,59.99160118,,,,,,
,,,,,,,,0.205700005,-0.064416843,1,0,0,0.8322,sixthChoice,5,"0.31765, 0.15686, 0.090196",1,0,6,6,9,1,resources/t4Model-O.png,"0.31765, 0.15686, 0.090196","0.36342, 0.17598, 0.098248","0.55928, 0.25965, 0.13367","0.38431, 0.14902, 0.047059","0.22745, 0.098039, 0.05098","0.27161, 0.12707, 0.072951","0.41066, 0.19954, 0.10607","0.30444, 0.12352, 0.051246",What is the color of the person's skin in the previous image?,2022-03-02_12h24.55.026,Representative Color,2021.2.3,MacIntel,59.99160118,,,,,,
,,,,,,,,-0.178323703,-0.043659125,1,0,0,1.1457,fifthChoice,4,"0.39516, 0.52728, 0.76134",6,0,7,7,18,1,resources/t4sky.png,"0.38039, 0.50588, 0.72941","0.60278, 0.71367, 0.87522","0.41001, 0.54883, 0.79353","0.54118, 0.65098, 0.81961","0.48627, 0.6, 0.78824","0.39516, 0.52728, 0.76134","0.50889, 0.63012, 0.83447","0.4494, 0.57426, 0.79097",What is the color of the sky in the previous image?,2022-03-02_12h24.55.026,Representative Color,2021.2.3,MacIntel,59.99160118,,,,,,
,,,,,,,,0.159860094,-0.057982992,1,0,0,1.6983,sixthChoice,5,"0.66468, 0.4273, 0.28886",3,0,8,8,3,1,resources/t4Model-A.png,"0.60784, 0.39216, 0.26667","0.59216, 0.31765, 0.21569","0.66468, 0.4273, 0.28886","0.64755, 0.3451, 0.23286","0.72157, 0.47059, 0.33333","0.42353, 0.18824, 0.094118","0.50588, 0.29804, 0.19608","0.56078, 0.3451, 0.23529",What is the color of the person's skin in the previous image?,2022-03-02_12h24.55.026,Representative Color,2021.2.3,MacIntel,59.99160118,,,,,,
,,,,,,,,0.187845798,0.014217224,1,0,0,1.0983,fourthChoice,3,"0.52414, 0.27049, 0.13884",2,0,9,9,5,1,resources/t4Model-J.png,"0.74118, 0.41961, 0.23529","0.52414, 0.27049, 0.13884","0.79714, 0.44966, 0.25005","0.63529, 0.38824, 0.21569","0.70588, 0.43922, 0.2549","0.64314, 0.33725, 0.18431","0.56863, 0.32157, 0.19216","0.4549, 0.23137, 0.12157",What is the color of the person's skin in the previous image?,2022-03-02_12h24.55.026,Representative Color,2021.2.3,MacIntel,59.99160118,,,,,,
,,,,,,,,0.063579915,-0.156532457,1,0,0,1.1658,eighthChoice,7,"0.62375, 0.38114, 0.24213",3,0,10,10,11,1,resources/t4Model-R.png,"0.56863, 0.34902, 0.22353","0.54902, 0.27843, 0.15686","0.62375, 0.38114, 0.24213","0.60078, 0.30229, 0.16803","0.48235, 0.24314, 0.13333","0.65098, 0.41176, 0.28235","0.49412, 0.28627, 0.16471","0.54118, 0.31373, 0.19216",What is the color of the person's skin in the previous image?,2022-03-02_12h24.55.026,Representative Color,2021.2.3,MacIntel,59.99160118,,,,,,
,,,,,,,,0.089711236,0.149284159,1,0,0,1.0311,secondChoice,1,"0.6564, 0.64356, 0.5619",2,0,11,11,0,1,resources/t4DSC_0016.png,"0.6, 0.58039, 0.4549","0.6564, 0.64356, 0.5619","0.65167, 0.63033, 0.49287","0.60392, 0.59216, 0.50196","0.60392, 0.60392, 0.55686","0.62839, 0.6118, 0.50808","0.62574, 0.60526, 0.47382","0.60418, 0.59802, 0.5294",What is the color of the wine in the previous image?,2022-03-02_12h24.55.026,Representative Color,2021.2.3,MacIntel,59.99160118,,,,,,
,,,,,,,,-0.166123115,0.049736362,1,0,0,1.4639,thirdChoice,2,"0.7537, 0.51393, 0.381",2,0,12,12,10,1,resources/t4Model-Ol.png,"0.69412, 0.47451, 0.35294","0.7537, 0.51393, 0.381","0.75045, 0.43076, 0.25995","0.56863, 0.2902, 0.18039","0.52941, 0.28235, 0.15294","0.69412, 0.4, 0.24314","0.79608, 0.58039, 0.45098","0.58431, 0.37255, 0.24706",What is the color of the person's skin in the previous image?,2022-03-02_12h24.55.026,Representative Color,2021.2.3,MacIntel,59.99160118,,,,,,
,,,,,,,,0.029999118,0.153722161,1,0,0,0.7974,secondChoice,1,"0.7451, 0.66275, 0.27451",6,0,13,13,15,1,resources/t4green22days1_hdrOff.png,"0.68235, 0.57255, 0.20784","0.72549, 0.62353, 0.15686","0.76987, 0.66176, 0.16087","0.82745, 0.62745, 0.21569","0.70588, 0.53725, 0.12549","0.7451, 0.66275, 0.27451","0.60784, 0.52941, 0.18824","0.65098, 0.51373, 0.18824",What is the color of the tomato in the previous image?,2022-03-02_12h24.55.026,Representative Color,2021.2.3,MacIntel,59.99160118,,,,,,
,,,,,,,,-0.043530002,0.14922014,1,0,0,0.6481,firstChoice,0,"0.81569, 0.61176, 0.47843",7,0,14,14,7,1,resources/t4Model-LC.png,"0.73725, 0.52941, 0.38431","0.79679, 0.57109, 0.41322","0.66488, 0.37758, 0.19682","0.58431, 0.32157, 0.18431","0.61176, 0.34902, 0.18431","0.68627, 0.47059, 0.32941","0.81569, 0.61176, 0.47843","0.63529, 0.42353, 0.27451",What is the color of the person's skin in the previous image?,2022-03-02_12h24.55.026,Representative Color,2021.2.3,MacIntel,59.99160118,,,,,,
,,,,,,,,0.083711344,0.153899638,1,0,0,1.083,secondChoice,1,"0.56078, 0.26667, 0.1451",4,0,15,15,14,1,resources/t4Model-yl.png,"0.43529, 0.22353, 0.12157","0.48425, 0.24604, 0.13103","0.74365, 0.40389, 0.19507","0.56078, 0.26667, 0.1451","0.35294, 0.16078, 0.070588","0.6, 0.35294, 0.22353","0.55294, 0.31373, 0.19216","0.30588, 0.12549, 0.043137",What is the color of the person's skin in the previous image?,2022-03-02_12h24.55.026,Representative Color,2021.2.3,MacIntel,59.99160118,,,,,,
,,,,,,,,-0.166132067,0.073018324,1,0,0,1.4476,thirdChoice,2,"0.41176, 0.59216, 0.11373",5,0,16,16,17,1,resources/t4zpeppers.png,"0.35294, 0.47451, 0.15294","0.48235, 0.63529, 0.13725","0.37942, 0.51262, 0.16068","0.5104, 0.6743, 0.13948","0.41176, 0.59216, 0.11373","0.417, 0.55383, 0.14817","0.38255, 0.53277, 0.1372","0.44713, 0.61369, 0.1255",What is the color of the peppers in the previous image?,2022-03-02_12h24.55.026,Representative Color,2021.2.3,MacIntel,59.99160118,,,,,,
,,,,,,,,0.056724108,0.196365899,1,0,0,1.0153,secondChoice,1,"0.68099, 0.43522, 0.27061",7,0,17,17,13,1,resources/t4Model-ll.png,"0.59608, 0.36863, 0.23137","0.66275, 0.4, 0.21961","0.71741, 0.4315, 0.23453","0.65882, 0.43137, 0.29412","0.62936, 0.38426, 0.22577","0.54887, 0.3251, 0.1898","0.68099, 0.43522, 0.27061","0.58137, 0.34036, 0.18379",What is the color of the person's skin in the previous image?,2022-03-02_12h24.55.026,Representative Color,2021.2.3,MacIntel,59.99160118,,,,,,
,,,,,,,,-0.177742242,-0.080279812,1,0,0,1.3628,fifthChoice,4,"0.81569, 0.36863, 0.13333",8,0,18,18,16,1,resources/t4mysteryLightOr_hdrOff.png,"0.81569, 0.43922, 0.22353","0.8714, 0.46756, 0.23566","0.91794, 0.40919, 0.093393","0.77255, 0.29804, 0.07451","0.9098, 0.55294, 0.30196","0.88627, 0.50196, 0.23922","0.72941, 0.36471, 0.19608","0.81569, 0.36863, 0.13333",What is the color of the tomato in the previous image?,2022-03-02_12h24.55.026,Representative Color,2021.2.3,MacIntel,59.99160118,,,,,,
,,,,,,,,0.032286784,-0.208695679,1,0,0,1.1314,eighthChoice,7,"0.21431, 0.034629, 0.057098",2,0,19,19,2,1,resources/t4DSC_0025.png,"0.39608, 0.058824, 0.070588","0.21431, 0.034629, 0.057098","0.43656, 0.051112, 0.07439","0.51373, 0.35294, 0.40784","0.21961, 0.086275, 0.12549","0.33333, 0.019608, 0.031373","0.36078, 0.26667, 0.32157","0.48235, 0.22745, 0.26275",What is the color of the wine in the previous image?,2022-03-02_12h24.55.026,Representative Color,2021.2.3,MacIntel,59.99160118,,,,,,
,,,,,,,,,,,,,,,,,,,,,,,,,,,,,,,,,2022-03-02_12h24.55.026,Representative Color,2021.2.3,MacIntel,59.99160118,0,4,4,4,1,resources/trialFull.xlsx
