textboxDate.text,textboxElectronicSignature.text,textboxAge.text,textboxInitials.text,sliderViewConditions.response,sliderColorScientist.response,sliderCVD.response,sliderGenderIdentification.response,mouseResponse.x,mouseResponse.y,mouseResponse.leftButton,mouseResponse.midButton,mouseResponse.rightButton,mouseResponse.time,mouseResponse.clicked_name,mouseResponseLocation,choiceColor,choiceIndex,trialsStimuli.thisRepN,trialsStimuli.thisTrialN,trialsStimuli.thisN,trialsStimuli.thisIndex,trialsStimuli.ran,File_Name,color1,color2,color3,color4,color5,color6,color7,color8,Question,date,expName,psychopyVersion,OS,frameRate,trialsBlock.thisRepN,trialsBlock.thisTrialN,trialsBlock.thisN,trialsBlock.thisIndex,trialsBlock.ran,cond_file
3/1/2022,FB7B722183E35F25CE0DA6449E3712B32BE459E0,,,2,1,2,2,0.188940972,0.062178819,1,0,0,2.7139,fourthChoice,3,"0.53725, 0.011765, 0.0078431",5,0,0,0,0,1,resources/test_wine.png,"0.40784, 0.070588, 0.070588","0.6, 0.043137, 0.035294","0.44887, 0.066156, 0.074042","0.49412, 0.090196, 0.062745","0.53725, 0.011765, 0.0078431","0.30196, 0.066667, 0.062745","0.35427, 0.069613, 0.067232","0.41756, 0.054997, 0.039926",What is the color of the previous image?,2022-03-01_14h13.54.565,Representative Color,2021.2.3,MacIntel,60.0024001,,,,,,
,,,,,,,,-0.173580729,0.050017361,1,0,0,3.8467,thirdChoice,2,"0.26275, 0.46667, 0.76863",1,0,1,1,2,1,resources/test_sky.png,"0.26275, 0.46667, 0.76863","0.2, 0.35686, 0.6902","0.27689, 0.50341, 0.83205","0.21961, 0.41176, 0.72157","0.2415, 0.43907, 0.74504","0.21025, 0.38424, 0.70588","0.35291, 0.58434, 0.85098","0.42745, 0.60784, 0.84314",What is the color of the previous image?,2022-03-01_14h13.54.565,Representative Color,2021.2.3,MacIntel,60.0024001,,,,,,
,,,,,,,,0.049084201,0.15109809,1,0,0,1.8645,secondChoice,1,"0.57255, 0.58431, 0.12549",2,0,2,2,1,1,resources/test_tomato_green.png,"0.50196, 0.52941, 0.19608","0.57255, 0.58431, 0.12549","0.53942, 0.56976, 0.20711","0.6093, 0.62259, 0.12696","0.68627, 0.71373, 0.26667","0.4549, 0.49412, 0.11765","0.61961, 0.64314, 0.26667","0.37647, 0.41569, 0.12941",What is the color of the previous image?,2022-03-01_14h13.54.565,Representative Color,2021.2.3,MacIntel,60.0024001,,,,,,
,,,,,,,,0.066549479,-0.21640191,1,0,0,4.3783,eighthChoice,7,"0.85235, 0.25555, 0.14958",8,0,3,3,3,1,resources/test_tomato_red.png,"0.80784, 0.27451, 0.18431","0.84314, 0.21961, 0.10196","0.86089, 0.28874, 0.19361","0.88235, 0.33333, 0.21176","0.74118, 0.22745, 0.16863","0.79608, 0.21569, 0.12941","0.77439, 0.25104, 0.17647","0.85235, 0.25555, 0.14958",What is the color of the tomato in the previous image?,2022-03-01_14h13.54.565,Representative Color,2021.2.3,MacIntel,60.0024001,,,,,,
,,,,,,,,,,,,,,,,,,,,,,,,,,,,,,,,,2022-03-01_14h13.54.565,Representative Color,2021.2.3,MacIntel,60.0024001,0,0,0,0,1,resources/training.xlsx
,,,,,,,,-0.051601563,-0.17483941,1,0,0,3.0454,seventhChoice,6,"0.27161, 0.12707, 0.072951",6,0,0,0,9,1,resources/t1Model-O.png,"0.31765, 0.15686, 0.090196","0.36342, 0.17598, 0.098248","0.55928, 0.25965, 0.13367","0.38431, 0.14902, 0.047059","0.22745, 0.098039, 0.05098","0.27161, 0.12707, 0.072951","0.41066, 0.19954, 0.10607","0.30444, 0.12352, 0.051246",What is the color of the previous image?,2022-03-01_14h13.54.565,Representative Color,2021.2.3,MacIntel,60.0024001,,,,,,
,,,,,,,,0.139852431,0.049192708,1,0,0,7.4127,fourthChoice,3,"0.56863, 0.32157, 0.19216",7,0,1,1,5,1,resources/t1Model-J.png,"0.74118, 0.41961, 0.23529","0.52414, 0.27049, 0.13884","0.79714, 0.44966, 0.25005","0.63529, 0.38824, 0.21569","0.70588, 0.43922, 0.2549","0.64314, 0.33725, 0.18431","0.56863, 0.32157, 0.19216","0.4549, 0.23137, 0.12157",What is the color of the previous image?,2022-03-01_14h13.54.565,Representative Color,2021.2.3,MacIntel,60.0024001,,,,,,
,,,,,,,,0.163993056,-0.065234375,1,0,0,3.8641,sixthChoice,5,"0.61569, 0.30588, 0.18039",2,0,2,2,6,1,resources/t1Model-L.png,"0.52549, 0.2902, 0.16471","0.61569, 0.30588, 0.18039","0.57757, 0.31686, 0.1774","0.66902, 0.33001, 0.19272","0.47843, 0.25098, 0.13333","0.65882, 0.4, 0.25882","0.61176, 0.36078, 0.23137","0.41961, 0.20784, 0.094118",What is the color of the previous image?,2022-03-01_14h13.54.565,Representative Color,2021.2.3,MacIntel,60.0024001,,,,,,
,,,,,,,,-0.156506076,-0.070768229,1,0,0,2.9471,fifthChoice,4,"0.81569, 0.36863, 0.13333",8,0,3,3,16,1,resources/t1mysteryLightOr_hdrOff.png,"0.81569, 0.43922, 0.22353","0.8714, 0.46756, 0.23566","0.91794, 0.40919, 0.093393","0.77255, 0.29804, 0.07451","0.9098, 0.55294, 0.30196","0.88627, 0.50196, 0.23922","0.72941, 0.36471, 0.19608","0.81569, 0.36863, 0.13333",What is the color of the previous image?,2022-03-01_14h13.54.565,Representative Color,2021.2.3,MacIntel,60.0024001,,,,,,
,,,,,,,,-0.078967014,0.155681424,1,0,0,5.1137,firstChoice,0,"0.62375, 0.38114, 0.24213",3,0,4,4,11,1,resources/t1Model-R.png,"0.56863, 0.34902, 0.22353","0.54902, 0.27843, 0.15686","0.62375, 0.38114, 0.24213","0.60078, 0.30229, 0.16803","0.48235, 0.24314, 0.13333","0.65098, 0.41176, 0.28235","0.49412, 0.28627, 0.16471","0.54118, 0.31373, 0.19216",What is the color of the previous image?,2022-03-01_14h13.54.565,Representative Color,2021.2.3,MacIntel,60.0024001,,,,,,
,,,,,,,,0.2028125,0.045885417,1,0,0,2.0813,fourthChoice,3,"0.66468, 0.4273, 0.28886",3,0,5,5,3,1,resources/t1Model-A.png,"0.60784, 0.39216, 0.26667","0.59216, 0.31765, 0.21569","0.66468, 0.4273, 0.28886","0.64755, 0.3451, 0.23286","0.72157, 0.47059, 0.33333","0.42353, 0.18824, 0.094118","0.50588, 0.29804, 0.19608","0.56078, 0.3451, 0.23529",What is the color of the previous image?,2022-03-01_14h13.54.565,Representative Color,2021.2.3,MacIntel,60.0024001,,,,,,
,,,,,,,,-0.148897569,-0.056684028,1,0,0,5.2811,fifthChoice,4,"0.43656, 0.051112, 0.07439",3,0,6,6,2,1,resources/t1DSC_0025.png,"0.39608, 0.058824, 0.070588","0.21431, 0.034629, 0.057098","0.43656, 0.051112, 0.07439","0.51373, 0.35294, 0.40784","0.21961, 0.086275, 0.12549","0.33333, 0.019608, 0.031373","0.36078, 0.26667, 0.32157","0.48235, 0.22745, 0.26275",What is the color of the previous image?,2022-03-01_14h13.54.565,Representative Color,2021.2.3,MacIntel,60.0024001,,,,,,
,,,,,,,,-0.067378472,0.149435764,1,0,0,4.565,firstChoice,0,"0.69412, 0.4, 0.24314",6,0,7,7,10,1,resources/t1Model-Ol.png,"0.69412, 0.47451, 0.35294","0.7537, 0.51393, 0.381","0.75045, 0.43076, 0.25995","0.56863, 0.2902, 0.18039","0.52941, 0.28235, 0.15294","0.69412, 0.4, 0.24314","0.79608, 0.58039, 0.45098","0.58431, 0.37255, 0.24706",What is the color of the previous image?,2022-03-01_14h13.54.565,Representative Color,2021.2.3,MacIntel,60.0024001,,,,,,
,,,,,,,,0.063190104,0.190559896,1,0,0,6.8984,secondChoice,1,"0.8, 0.48235, 0.4",5,0,8,8,4,1,resources/t1Model-B.png,"0.73725, 0.54118, 0.45098","0.79859, 0.58507, 0.48676","0.72531, 0.40323, 0.30464","0.71373, 0.40784, 0.36078","0.8, 0.48235, 0.4","0.68235, 0.44314, 0.33333","0.64706, 0.45882, 0.36471","0.71765, 0.49804, 0.41176",What is the color of the previous image?,2022-03-01_14h13.54.565,Representative Color,2021.2.3,MacIntel,60.0024001,,,,,,
,,,,,,,,0.152096354,-0.074505208,1,0,0,2.0157,sixthChoice,5,"0.71971, 0.45365, 0.33937",6,0,9,9,8,1,resources/t1Model-M.png,"0.72549, 0.51373, 0.4","0.65098, 0.35294, 0.25098","0.78605, 0.55541, 0.43138","0.68985, 0.4335, 0.3243","0.6843, 0.46832, 0.35448","0.71971, 0.45365, 0.33937","0.73744, 0.47932, 0.37149","0.71412, 0.48874, 0.36979",What is the color of the previous image?,2022-03-01_14h13.54.565,Representative Color,2021.2.3,MacIntel,60.0024001,,,,,,
,,,,,,,,-0.169800347,-0.086271701,1,0,0,1.4824,fifthChoice,4,"0.78972, 0.56355, 0.43105",2,0,10,10,12,1,resources/t1Model-Y.png,"0.72941, 0.52157, 0.4","0.78972, 0.56355, 0.43105","0.64714, 0.32317, 0.22415","0.62353, 0.34902, 0.22353","0.59216, 0.29804, 0.20784","0.6902, 0.47843, 0.36471","0.80392, 0.60392, 0.49412","0.60784, 0.39216, 0.26275",What is the color of the previous image?,2022-03-01_14h13.54.565,Representative Color,2021.2.3,MacIntel,60.0024001,,,,,,
,,,,,,,,0.179986979,0.058611111,1,0,0,2.3308,fourthChoice,3,"0.34902, 0.043137, 0.094118",5,0,11,11,1,1,resources/t1DSC_0021.png,"0.16863, 0.027451, 0.035294","0.34118, 0.023529, 0.05098","0.37836, 0.0080068, 0.055199","0.37255, 0.12157, 0.18431","0.34902, 0.043137, 0.094118","0.41569, 0.23529, 0.29804","0.21569, 0.0078431, 0.019608","0.44314, 0.16863, 0.21961",What is the color of the previous image?,2022-03-01_14h13.54.565,Representative Color,2021.2.3,MacIntel,60.0024001,,,,,,
,,,,,,,,-0.172144097,-0.081037326,1,0,0,1.9981,fifthChoice,4,"0.72549, 0.62353, 0.15686",2,0,12,12,15,1,resources/t1green22days1_hdrOff.png,"0.68235, 0.57255, 0.20784","0.72549, 0.62353, 0.15686","0.76987, 0.66176, 0.16087","0.82745, 0.62745, 0.21569","0.70588, 0.53725, 0.12549","0.7451, 0.66275, 0.27451","0.60784, 0.52941, 0.18824","0.65098, 0.51373, 0.18824",What is the color of the previous image?,2022-03-01_14h13.54.565,Representative Color,2021.2.3,MacIntel,60.0024001,,,,,,
,,,,,,,,0.1728125,0.061024306,1,0,0,7.6662,fourthChoice,3,"0.6, 0.58039, 0.4549",1,0,13,13,0,1,resources/t1DSC_0016.png,"0.6, 0.58039, 0.4549","0.6564, 0.64356, 0.5619","0.65167, 0.63033, 0.49287","0.60392, 0.59216, 0.50196","0.60392, 0.60392, 0.55686","0.62839, 0.6118, 0.50808","0.62574, 0.60526, 0.47382","0.60418, 0.59802, 0.5294",What is the color of the previous image?,2022-03-01_14h13.54.565,Representative Color,2021.2.3,MacIntel,60.0024001,,,,,,
,,,,,,,,-0.150026042,-0.072473958,1,0,0,5.6482,fifthChoice,4,"0.66488, 0.37758, 0.19682",3,0,14,14,7,1,resources/t1Model-LC.png,"0.73725, 0.52941, 0.38431","0.79679, 0.57109, 0.41322","0.66488, 0.37758, 0.19682","0.58431, 0.32157, 0.18431","0.61176, 0.34902, 0.18431","0.68627, 0.47059, 0.32941","0.81569, 0.61176, 0.47843","0.63529, 0.42353, 0.27451",What is the color of the previous image?,2022-03-01_14h13.54.565,Representative Color,2021.2.3,MacIntel,60.0024001,,,,,,
,,,,,,,,0.157452257,0.039605035,1,0,0,3.1822,fourthChoice,3,"0.71741, 0.4315, 0.23453",3,0,15,15,13,1,resources/t1Model-ll.png,"0.59608, 0.36863, 0.23137","0.66275, 0.4, 0.21961","0.71741, 0.4315, 0.23453","0.65882, 0.43137, 0.29412","0.62936, 0.38426, 0.22577","0.54887, 0.3251, 0.1898","0.68099, 0.43522, 0.27061","0.58137, 0.34036, 0.18379",What is the color of the previous image?,2022-03-01_14h13.54.565,Representative Color,2021.2.3,MacIntel,60.0024001,,,,,,
,,,,,,,,0.175238715,0.042539063,1,0,0,1.9325,fourthChoice,3,"0.33318, 0.45547, 0.20282",3,0,16,16,19,1,resources/t1zgrass.png,"0.30588, 0.41569, 0.18824","0.36341, 0.42546, 0.21823","0.33318, 0.45547, 0.20282","0.32157, 0.38039, 0.19216","0.27231, 0.37211, 0.15269","0.31422, 0.39807, 0.19031","0.34895, 0.44055, 0.21071","0.28046, 0.35484, 0.15506",What is the color of the previous image?,2022-03-01_14h13.54.565,Representative Color,2021.2.3,MacIntel,60.0024001,,,,,,
,,,,,,,,0.053146701,-0.163055556,1,0,0,1.5322,eighthChoice,7,"0.43529, 0.22353, 0.12157",1,0,17,17,14,1,resources/t1Model-yl.png,"0.43529, 0.22353, 0.12157","0.48425, 0.24604, 0.13103","0.74365, 0.40389, 0.19507","0.56078, 0.26667, 0.1451","0.35294, 0.16078, 0.070588","0.6, 0.35294, 0.22353","0.55294, 0.31373, 0.19216","0.30588, 0.12549, 0.043137",What is the color of the previous image?,2022-03-01_14h13.54.565,Representative Color,2021.2.3,MacIntel,60.0024001,,,,,,
,,,,,,,,-0.096657986,-0.176792535,1,0,0,6.5822,seventhChoice,6,"0.4494, 0.57426, 0.79097",8,0,18,18,18,1,resources/t1sky.png,"0.38039, 0.50588, 0.72941","0.60278, 0.71367, 0.87522","0.41001, 0.54883, 0.79353","0.54118, 0.65098, 0.81961","0.48627, 0.6, 0.78824","0.39516, 0.52728, 0.76134","0.50889, 0.63012, 0.83447","0.4494, 0.57426, 0.79097",What is the color of the previous image?,2022-03-01_14h13.54.565,Representative Color,2021.2.3,MacIntel,60.0024001,,,,,,
,,,,,,,,0.054670139,-0.163723958,1,0,0,6.7165,eighthChoice,7,"0.44713, 0.61369, 0.1255",8,0,19,19,17,1,resources/t1zpeppers.png,"0.35294, 0.47451, 0.15294","0.48235, 0.63529, 0.13725","0.37942, 0.51262, 0.16068","0.5104, 0.6743, 0.13948","0.41176, 0.59216, 0.11373","0.417, 0.55383, 0.14817","0.38255, 0.53277, 0.1372","0.44713, 0.61369, 0.1255",What is the color of the previous image?,2022-03-01_14h13.54.565,Representative Color,2021.2.3,MacIntel,60.0024001,,,,,,
,,,,,,,,,,,,,,,,,,,,,,,,,,,,,,,,,2022-03-01_14h13.54.565,Representative Color,2021.2.3,MacIntel,60.0024001,0,1,1,1,1,resources/trialScramble.xlsx
,,,,,,,,0.148242188,-0.029340278,1,0,0,2.5977,sixthChoice,5,"0.7537, 0.51393, 0.381",2,0,0,0,10,1,resources/t2Model-Ol.png,"0.69412, 0.47451, 0.35294","0.7537, 0.51393, 0.381","0.75045, 0.43076, 0.25995","0.56863, 0.2902, 0.18039","0.52941, 0.28235, 0.15294","0.69412, 0.4, 0.24314","0.79608, 0.58039, 0.45098","0.58431, 0.37255, 0.24706",What is the color of the previous image?,2022-03-01_14h13.54.565,Representative Color,2021.2.3,MacIntel,60.0024001,,,,,,
,,,,,,,,0.088307292,0.179236111,1,0,0,4.432,secondChoice,1,"0.56863, 0.32157, 0.19216",7,0,1,1,5,1,resources/t2Model-J.png,"0.74118, 0.41961, 0.23529","0.52414, 0.27049, 0.13884","0.79714, 0.44966, 0.25005","0.63529, 0.38824, 0.21569","0.70588, 0.43922, 0.2549","0.64314, 0.33725, 0.18431","0.56863, 0.32157, 0.19216","0.4549, 0.23137, 0.12157",What is the color of the previous image?,2022-03-01_14h13.54.565,Representative Color,2021.2.3,MacIntel,60.0024001,,,,,,
,,,,,,,,-0.154474826,-0.080273438,1,0,0,2.6322,fifthChoice,4,"0.78972, 0.56355, 0.43105",2,0,2,2,12,1,resources/t2Model-Y.png,"0.72941, 0.52157, 0.4","0.78972, 0.56355, 0.43105","0.64714, 0.32317, 0.22415","0.62353, 0.34902, 0.22353","0.59216, 0.29804, 0.20784","0.6902, 0.47843, 0.36471","0.80392, 0.60392, 0.49412","0.60784, 0.39216, 0.26275",What is the color of the previous image?,2022-03-01_14h13.54.565,Representative Color,2021.2.3,MacIntel,60.0024001,,,,,,
,,,,,,,,-0.150030382,-0.086757813,1,0,0,3.5653,fifthChoice,4,"0.73744, 0.47932, 0.37149",7,0,3,3,8,1,resources/t2Model-M.png,"0.72549, 0.51373, 0.4","0.65098, 0.35294, 0.25098","0.78605, 0.55541, 0.43138","0.68985, 0.4335, 0.3243","0.6843, 0.46832, 0.35448","0.71971, 0.45365, 0.33937","0.73744, 0.47932, 0.37149","0.71412, 0.48874, 0.36979",What is the color of the previous image?,2022-03-01_14h13.54.565,Representative Color,2021.2.3,MacIntel,60.0024001,,,,,,
,,,,,,,,-0.174713542,0.044327257,1,0,0,1.2502,thirdChoice,2,"0.79679, 0.57109, 0.41322",2,0,4,4,7,1,resources/t2Model-LC.png,"0.73725, 0.52941, 0.38431","0.79679, 0.57109, 0.41322","0.66488, 0.37758, 0.19682","0.58431, 0.32157, 0.18431","0.61176, 0.34902, 0.18431","0.68627, 0.47059, 0.32941","0.81569, 0.61176, 0.47843","0.63529, 0.42353, 0.27451",What is the color of the previous image?,2022-03-01_14h13.54.565,Representative Color,2021.2.3,MacIntel,60.0024001,,,,,,
,,,,,,,,-0.172296007,-0.061054688,1,0,0,1.3156,fifthChoice,4,"0.30588, 0.41569, 0.18824",1,0,5,5,19,1,resources/t2zgrass.png,"0.30588, 0.41569, 0.18824","0.36341, 0.42546, 0.21823","0.33318, 0.45547, 0.20282","0.32157, 0.38039, 0.19216","0.27231, 0.37211, 0.15269","0.31422, 0.39807, 0.19031","0.34895, 0.44055, 0.21071","0.28046, 0.35484, 0.15506",What is the color of the previous image?,2022-03-01_14h13.54.565,Representative Color,2021.2.3,MacIntel,60.0024001,,,,,,
,,,,,,,,0.202452257,0.041788194,1,0,0,2.7974,fourthChoice,3,"0.66902, 0.33001, 0.19272",4,0,6,6,6,1,resources/t2Model-L.png,"0.52549, 0.2902, 0.16471","0.61569, 0.30588, 0.18039","0.57757, 0.31686, 0.1774","0.66902, 0.33001, 0.19272","0.47843, 0.25098, 0.13333","0.65882, 0.4, 0.25882","0.61176, 0.36078, 0.23137","0.41961, 0.20784, 0.094118",What is the color of the previous image?,2022-03-01_14h13.54.565,Representative Color,2021.2.3,MacIntel,60.0024001,,,,,,
,,,,,,,,0.034036458,-0.170008681,1,0,0,3.431,eighthChoice,7,"0.43529, 0.22353, 0.12157",1,0,7,7,14,1,resources/t2Model-yl.png,"0.43529, 0.22353, 0.12157","0.48425, 0.24604, 0.13103","0.74365, 0.40389, 0.19507","0.56078, 0.26667, 0.1451","0.35294, 0.16078, 0.070588","0.6, 0.35294, 0.22353","0.55294, 0.31373, 0.19216","0.30588, 0.12549, 0.043137",What is the color of the previous image?,2022-03-01_14h13.54.565,Representative Color,2021.2.3,MacIntel,60.0024001,,,,,,
,,,,,,,,0.157443576,-0.075976562,1,0,0,4.9808,sixthChoice,5,"0.66275, 0.4, 0.21961",2,0,8,8,13,1,resources/t2Model-ll.png,"0.59608, 0.36863, 0.23137","0.66275, 0.4, 0.21961","0.71741, 0.4315, 0.23453","0.65882, 0.43137, 0.29412","0.62936, 0.38426, 0.22577","0.54887, 0.3251, 0.1898","0.68099, 0.43522, 0.27061","0.58137, 0.34036, 0.18379",What is the color of the previous image?,2022-03-01_14h13.54.565,Representative Color,2021.2.3,MacIntel,60.0024001,,,,,,
,,,,,,,,-0.059487847,0.16593316,1,0,0,1.9315,firstChoice,0,"0.54118, 0.31373, 0.19216",8,0,9,9,11,1,resources/t2Model-R.png,"0.56863, 0.34902, 0.22353","0.54902, 0.27843, 0.15686","0.62375, 0.38114, 0.24213","0.60078, 0.30229, 0.16803","0.48235, 0.24314, 0.13333","0.65098, 0.41176, 0.28235","0.49412, 0.28627, 0.16471","0.54118, 0.31373, 0.19216",What is the color of the previous image?,2022-03-01_14h13.54.565,Representative Color,2021.2.3,MacIntel,60.0024001,,,,,,
,,,,,,,,-0.157938368,0.052960069,1,0,0,3.2323,thirdChoice,2,"0.37836, 0.0080068, 0.055199",3,0,10,10,1,1,resources/t2DSC_0021.png,"0.16863, 0.027451, 0.035294","0.34118, 0.023529, 0.05098","0.37836, 0.0080068, 0.055199","0.37255, 0.12157, 0.18431","0.34902, 0.043137, 0.094118","0.41569, 0.23529, 0.29804","0.21569, 0.0078431, 0.019608","0.44314, 0.16863, 0.21961",What is the color of the previous image?,2022-03-01_14h13.54.565,Representative Color,2021.2.3,MacIntel,60.0024001,,,,,,
,,,,,,,,-0.057248264,-0.174665799,1,0,0,6.8318,seventhChoice,6,"0.60392, 0.59216, 0.50196",4,0,11,11,0,1,resources/t2DSC_0016.png,"0.6, 0.58039, 0.4549","0.6564, 0.64356, 0.5619","0.65167, 0.63033, 0.49287","0.60392, 0.59216, 0.50196","0.60392, 0.60392, 0.55686","0.62839, 0.6118, 0.50808","0.62574, 0.60526, 0.47382","0.60418, 0.59802, 0.5294",What is the color of the previous image?,2022-03-01_14h13.54.565,Representative Color,2021.2.3,MacIntel,60.0024001,,,,,,
,,,,,,,,0.185460069,-0.078376736,1,0,0,7.0644,sixthChoice,5,"0.60784, 0.39216, 0.26667",1,0,12,12,3,1,resources/t2Model-A.png,"0.60784, 0.39216, 0.26667","0.59216, 0.31765, 0.21569","0.66468, 0.4273, 0.28886","0.64755, 0.3451, 0.23286","0.72157, 0.47059, 0.33333","0.42353, 0.18824, 0.094118","0.50588, 0.29804, 0.19608","0.56078, 0.3451, 0.23529",What is the color of the previous image?,2022-03-01_14h13.54.565,Representative Color,2021.2.3,MacIntel,60.0024001,,,,,,
,,,,,,,,-0.162369792,-0.063641493,1,0,0,1.5315,fifthChoice,4,"0.91794, 0.40919, 0.093393",3,0,13,13,16,1,resources/t2mysteryLightOr_hdrOff.png,"0.81569, 0.43922, 0.22353","0.8714, 0.46756, 0.23566","0.91794, 0.40919, 0.093393","0.77255, 0.29804, 0.07451","0.9098, 0.55294, 0.30196","0.88627, 0.50196, 0.23922","0.72941, 0.36471, 0.19608","0.81569, 0.36863, 0.13333",What is the color of the previous image?,2022-03-01_14h13.54.565,Representative Color,2021.2.3,MacIntel,60.0024001,,,,,,
,,,,,,,,0.048025174,-0.214127604,1,0,0,21.0439,eighthChoice,7,"0.41066, 0.19954, 0.10607",7,0,14,14,9,1,resources/t2Model-O.png,"0.31765, 0.15686, 0.090196","0.36342, 0.17598, 0.098248","0.55928, 0.25965, 0.13367","0.38431, 0.14902, 0.047059","0.22745, 0.098039, 0.05098","0.27161, 0.12707, 0.072951","0.41066, 0.19954, 0.10607","0.30444, 0.12352, 0.051246",What is the color of the previous image?,2022-03-01_14h13.54.565,Representative Color,2021.2.3,MacIntel,60.0024001,,,,,,
,,,,,,,,0.097230903,0.143867187,1,0,0,5.3137,secondChoice,1,"0.72549, 0.62353, 0.15686",2,0,15,15,15,1,resources/t2green22days1_hdrOff.png,"0.68235, 0.57255, 0.20784","0.72549, 0.62353, 0.15686","0.76987, 0.66176, 0.16087","0.82745, 0.62745, 0.21569","0.70588, 0.53725, 0.12549","0.7451, 0.66275, 0.27451","0.60784, 0.52941, 0.18824","0.65098, 0.51373, 0.18824",What is the color of the previous image?,2022-03-01_14h13.54.565,Representative Color,2021.2.3,MacIntel,60.0024001,,,,,,
,,,,,,,,0.09484809,0.154895833,1,0,0,2.5818,secondChoice,1,"0.54118, 0.65098, 0.81961",4,0,16,16,18,1,resources/t2sky.png,"0.38039, 0.50588, 0.72941","0.60278, 0.71367, 0.87522","0.41001, 0.54883, 0.79353","0.54118, 0.65098, 0.81961","0.48627, 0.6, 0.78824","0.39516, 0.52728, 0.76134","0.50889, 0.63012, 0.83447","0.4494, 0.57426, 0.79097",What is the color of the previous image?,2022-03-01_14h13.54.565,Representative Color,2021.2.3,MacIntel,60.0024001,,,,,,
,,,,,,,,0.032821181,-0.164618056,1,0,0,3.1827,eighthChoice,7,"0.39608, 0.058824, 0.070588",1,0,17,17,2,1,resources/t2DSC_0025.png,"0.39608, 0.058824, 0.070588","0.21431, 0.034629, 0.057098","0.43656, 0.051112, 0.07439","0.51373, 0.35294, 0.40784","0.21961, 0.086275, 0.12549","0.33333, 0.019608, 0.031373","0.36078, 0.26667, 0.32157","0.48235, 0.22745, 0.26275",What is the color of the previous image?,2022-03-01_14h13.54.565,Representative Color,2021.2.3,MacIntel,60.0024001,,,,,,
,,,,,,,,-0.158038194,-0.078528646,1,0,0,3.6637,fifthChoice,4,"0.73725, 0.54118, 0.45098",1,0,18,18,4,1,resources/t2Model-B.png,"0.73725, 0.54118, 0.45098","0.79859, 0.58507, 0.48676","0.72531, 0.40323, 0.30464","0.71373, 0.40784, 0.36078","0.8, 0.48235, 0.4","0.68235, 0.44314, 0.33333","0.64706, 0.45882, 0.36471","0.71765, 0.49804, 0.41176",What is the color of the previous image?,2022-03-01_14h13.54.565,Representative Color,2021.2.3,MacIntel,60.0024001,,,,,,
,,,,,,,,-0.181076389,0.04359809,1,0,0,1.3656,thirdChoice,2,"0.41176, 0.59216, 0.11373",5,0,19,19,17,1,resources/t2zpeppers.png,"0.35294, 0.47451, 0.15294","0.48235, 0.63529, 0.13725","0.37942, 0.51262, 0.16068","0.5104, 0.6743, 0.13948","0.41176, 0.59216, 0.11373","0.417, 0.55383, 0.14817","0.38255, 0.53277, 0.1372","0.44713, 0.61369, 0.1255",What is the color of the previous image?,2022-03-01_14h13.54.565,Representative Color,2021.2.3,MacIntel,60.0024001,,,,,,
,,,,,,,,,,,,,,,,,,,,,,,,,,,,,,,,,2022-03-01_14h13.54.565,Representative Color,2021.2.3,MacIntel,60.0024001,0,2,2,2,1,resources/trialSixteen.xlsx
,,,,,,,,-0.171914062,0.015195313,1,0,0,1.6652,thirdChoice,2,"0.78972, 0.56355, 0.43105",2,0,0,0,12,1,resources/t3Model-Y.png,"0.72941, 0.52157, 0.4","0.78972, 0.56355, 0.43105","0.64714, 0.32317, 0.22415","0.62353, 0.34902, 0.22353","0.59216, 0.29804, 0.20784","0.6902, 0.47843, 0.36471","0.80392, 0.60392, 0.49412","0.60784, 0.39216, 0.26275",What is the color of the previous image?,2022-03-01_14h13.54.565,Representative Color,2021.2.3,MacIntel,60.0024001,,,,,,
,,,,,,,,-0.04952691,0.157565104,1,0,0,5.6814,firstChoice,0,"0.37836, 0.0080068, 0.055199",3,0,1,1,1,1,resources/t3DSC_0021.png,"0.16863, 0.027451, 0.035294","0.34118, 0.023529, 0.05098","0.37836, 0.0080068, 0.055199","0.37255, 0.12157, 0.18431","0.34902, 0.043137, 0.094118","0.41569, 0.23529, 0.29804","0.21569, 0.0078431, 0.019608","0.44314, 0.16863, 0.21961",What is the color of the previous image?,2022-03-01_14h13.54.565,Representative Color,2021.2.3,MacIntel,60.0024001,,,,,,
,,,,,,,,0.083559028,-0.229205729,1,0,0,5.0318,eighthChoice,7,"0.73744, 0.47932, 0.37149",7,0,2,2,8,1,resources/t3Model-M.png,"0.72549, 0.51373, 0.4","0.65098, 0.35294, 0.25098","0.78605, 0.55541, 0.43138","0.68985, 0.4335, 0.3243","0.6843, 0.46832, 0.35448","0.71971, 0.45365, 0.33937","0.73744, 0.47932, 0.37149","0.71412, 0.48874, 0.36979",What is the color of the previous image?,2022-03-01_14h13.54.565,Representative Color,2021.2.3,MacIntel,60.0024001,,,,,,
,,,,,,,,0.188784722,-0.073077257,1,0,0,3.1479,sixthChoice,5,"0.79859, 0.58507, 0.48676",2,0,3,3,4,1,resources/t3Model-B.png,"0.73725, 0.54118, 0.45098","0.79859, 0.58507, 0.48676","0.72531, 0.40323, 0.30464","0.71373, 0.40784, 0.36078","0.8, 0.48235, 0.4","0.68235, 0.44314, 0.33333","0.64706, 0.45882, 0.36471","0.71765, 0.49804, 0.41176",What is the color of the previous image?,2022-03-01_14h13.54.565,Representative Color,2021.2.3,MacIntel,60.0024001,,,,,,
,,,,,,,,0.141419271,0.057009549,1,0,0,1.5808,fourthChoice,3,"0.38431, 0.14902, 0.047059",4,0,4,4,9,1,resources/t3Model-O.png,"0.31765, 0.15686, 0.090196","0.36342, 0.17598, 0.098248","0.55928, 0.25965, 0.13367","0.38431, 0.14902, 0.047059","0.22745, 0.098039, 0.05098","0.27161, 0.12707, 0.072951","0.41066, 0.19954, 0.10607","0.30444, 0.12352, 0.051246",What is the color of the previous image?,2022-03-01_14h13.54.565,Representative Color,2021.2.3,MacIntel,60.0024001,,,,,,
,,,,,,,,0.148085937,-0.050611979,1,0,0,5.1994,sixthChoice,5,"0.43656, 0.051112, 0.07439",3,0,5,5,2,1,resources/t3DSC_0025.png,"0.39608, 0.058824, 0.070588","0.21431, 0.034629, 0.057098","0.43656, 0.051112, 0.07439","0.51373, 0.35294, 0.40784","0.21961, 0.086275, 0.12549","0.33333, 0.019608, 0.031373","0.36078, 0.26667, 0.32157","0.48235, 0.22745, 0.26275",What is the color of the previous image?,2022-03-01_14h13.54.565,Representative Color,2021.2.3,MacIntel,60.0024001,,,,,,
,,,,,,,,-0.157018229,0.058046875,1,0,0,2.1977,thirdChoice,2,"0.91794, 0.40919, 0.093393",3,0,6,6,16,1,resources/t3mysteryLightOr_hdrOff.png,"0.81569, 0.43922, 0.22353","0.8714, 0.46756, 0.23566","0.91794, 0.40919, 0.093393","0.77255, 0.29804, 0.07451","0.9098, 0.55294, 0.30196","0.88627, 0.50196, 0.23922","0.72941, 0.36471, 0.19608","0.81569, 0.36863, 0.13333",What is the color of the previous image?,2022-03-01_14h13.54.565,Representative Color,2021.2.3,MacIntel,60.0024001,,,,,,
,,,,,,,,-0.089748264,-0.185325521,1,0,0,2.5302,seventhChoice,6,"0.70588, 0.43922, 0.2549",5,0,7,7,5,1,resources/t3Model-J.png,"0.74118, 0.41961, 0.23529","0.52414, 0.27049, 0.13884","0.79714, 0.44966, 0.25005","0.63529, 0.38824, 0.21569","0.70588, 0.43922, 0.2549","0.64314, 0.33725, 0.18431","0.56863, 0.32157, 0.19216","0.4549, 0.23137, 0.12157",What is the color of the previous image?,2022-03-01_14h13.54.565,Representative Color,2021.2.3,MacIntel,60.0024001,,,,,,
,,,,,,,,-0.006545139,-0.204097222,1,0,0,3.2156,seventhChoice,6,"0.62574, 0.60526, 0.47382",7,0,8,8,0,1,resources/t3DSC_0016.png,"0.6, 0.58039, 0.4549","0.6564, 0.64356, 0.5619","0.65167, 0.63033, 0.49287","0.60392, 0.59216, 0.50196","0.60392, 0.60392, 0.55686","0.62839, 0.6118, 0.50808","0.62574, 0.60526, 0.47382","0.60418, 0.59802, 0.5294",What is the color of the previous image?,2022-03-01_14h13.54.565,Representative Color,2021.2.3,MacIntel,60.0024001,,,,,,
,,,,,,,,0.145759549,-0.081011285,1,0,0,13.1645,sixthChoice,5,"0.65882, 0.4, 0.25882",6,0,9,9,6,1,resources/t3Model-L.png,"0.52549, 0.2902, 0.16471","0.61569, 0.30588, 0.18039","0.57757, 0.31686, 0.1774","0.66902, 0.33001, 0.19272","0.47843, 0.25098, 0.13333","0.65882, 0.4, 0.25882","0.61176, 0.36078, 0.23137","0.41961, 0.20784, 0.094118",What is the color of the previous image?,2022-03-01_14h13.54.565,Representative Color,2021.2.3,MacIntel,60.0024001,,,,,,
,,,,,,,,0.096263021,-0.200407986,1,0,0,2.1987,eighthChoice,7,"0.66468, 0.4273, 0.28886",3,0,10,10,3,1,resources/t3Model-A.png,"0.60784, 0.39216, 0.26667","0.59216, 0.31765, 0.21569","0.66468, 0.4273, 0.28886","0.64755, 0.3451, 0.23286","0.72157, 0.47059, 0.33333","0.42353, 0.18824, 0.094118","0.50588, 0.29804, 0.19608","0.56078, 0.3451, 0.23529",What is the color of the previous image?,2022-03-01_14h13.54.565,Representative Color,2021.2.3,MacIntel,60.0024001,,,,,,
,,,,,,,,-0.149861111,0.035742188,1,0,0,2.0297,thirdChoice,2,"0.73725, 0.52941, 0.38431",1,0,11,11,7,1,resources/t3Model-LC.png,"0.73725, 0.52941, 0.38431","0.79679, 0.57109, 0.41322","0.66488, 0.37758, 0.19682","0.58431, 0.32157, 0.18431","0.61176, 0.34902, 0.18431","0.68627, 0.47059, 0.32941","0.81569, 0.61176, 0.47843","0.63529, 0.42353, 0.27451",What is the color of the previous image?,2022-03-01_14h13.54.565,Representative Color,2021.2.3,MacIntel,60.0024001,,,,,,
,,,,,,,,0.029019097,-0.147300347,1,0,0,2.5988,eighthChoice,7,"0.62375, 0.38114, 0.24213",3,0,12,12,11,1,resources/t3Model-R.png,"0.56863, 0.34902, 0.22353","0.54902, 0.27843, 0.15686","0.62375, 0.38114, 0.24213","0.60078, 0.30229, 0.16803","0.48235, 0.24314, 0.13333","0.65098, 0.41176, 0.28235","0.49412, 0.28627, 0.16471","0.54118, 0.31373, 0.19216",What is the color of the previous image?,2022-03-01_14h13.54.565,Representative Color,2021.2.3,MacIntel,60.0024001,,,,,,
,,,,,,,,-0.165164931,-0.078602431,1,0,0,1.3971,fifthChoice,4,"0.6, 0.35294, 0.22353",6,0,13,13,14,1,resources/t3Model-yl.png,"0.43529, 0.22353, 0.12157","0.48425, 0.24604, 0.13103","0.74365, 0.40389, 0.19507","0.56078, 0.26667, 0.1451","0.35294, 0.16078, 0.070588","0.6, 0.35294, 0.22353","0.55294, 0.31373, 0.19216","0.30588, 0.12549, 0.043137",What is the color of the previous image?,2022-03-01_14h13.54.565,Representative Color,2021.2.3,MacIntel,60.0024001,,,,,,
,,,,,,,,0.031927083,-0.192217882,1,0,0,2.9814,eighthChoice,7,"0.48627, 0.6, 0.78824",5,0,14,14,18,1,resources/t3sky.png,"0.38039, 0.50588, 0.72941","0.60278, 0.71367, 0.87522","0.41001, 0.54883, 0.79353","0.54118, 0.65098, 0.81961","0.48627, 0.6, 0.78824","0.39516, 0.52728, 0.76134","0.50889, 0.63012, 0.83447","0.4494, 0.57426, 0.79097",What is the color of the previous image?,2022-03-01_14h13.54.565,Representative Color,2021.2.3,MacIntel,60.0024001,,,,,,
,,,,,,,,-0.154361979,-0.080325521,1,0,0,5.0475,fifthChoice,4,"0.68099, 0.43522, 0.27061",7,0,15,15,13,1,resources/t3Model-ll.png,"0.59608, 0.36863, 0.23137","0.66275, 0.4, 0.21961","0.71741, 0.4315, 0.23453","0.65882, 0.43137, 0.29412","0.62936, 0.38426, 0.22577","0.54887, 0.3251, 0.1898","0.68099, 0.43522, 0.27061","0.58137, 0.34036, 0.18379",What is the color of the previous image?,2022-03-01_14h13.54.565,Representative Color,2021.2.3,MacIntel,60.0024001,,,,,,
,,,,,,,,-0.084079861,0.153506944,1,0,0,1.766,firstChoice,0,"0.7537, 0.51393, 0.381",2,0,16,16,10,1,resources/t3Model-Ol.png,"0.69412, 0.47451, 0.35294","0.7537, 0.51393, 0.381","0.75045, 0.43076, 0.25995","0.56863, 0.2902, 0.18039","0.52941, 0.28235, 0.15294","0.69412, 0.4, 0.24314","0.79608, 0.58039, 0.45098","0.58431, 0.37255, 0.24706",What is the color of the previous image?,2022-03-01_14h13.54.565,Representative Color,2021.2.3,MacIntel,60.0024001,,,,,,
,,,,,,,,-0.045030382,-0.184700521,1,0,0,5.4663,seventhChoice,6,"0.33318, 0.45547, 0.20282",3,0,17,17,19,1,resources/t3zgrass.png,"0.30588, 0.41569, 0.18824","0.36341, 0.42546, 0.21823","0.33318, 0.45547, 0.20282","0.32157, 0.38039, 0.19216","0.27231, 0.37211, 0.15269","0.31422, 0.39807, 0.19031","0.34895, 0.44055, 0.21071","0.28046, 0.35484, 0.15506",What is the color of the previous image?,2022-03-01_14h13.54.565,Representative Color,2021.2.3,MacIntel,60.0024001,,,,,,
,,,,,,,,-0.166792535,0.056571181,1,0,0,1.3834,thirdChoice,2,"0.41176, 0.59216, 0.11373",5,0,18,18,17,1,resources/t3zpeppers.png,"0.35294, 0.47451, 0.15294","0.48235, 0.63529, 0.13725","0.37942, 0.51262, 0.16068","0.5104, 0.6743, 0.13948","0.41176, 0.59216, 0.11373","0.417, 0.55383, 0.14817","0.38255, 0.53277, 0.1372","0.44713, 0.61369, 0.1255",What is the color of the previous image?,2022-03-01_14h13.54.565,Representative Color,2021.2.3,MacIntel,60.0024001,,,,,,
,,,,,,,,-0.138984375,0.048858507,1,0,0,5.4317,thirdChoice,2,"0.68235, 0.57255, 0.20784",1,0,19,19,15,1,resources/t3green22days1_hdrOff.png,"0.68235, 0.57255, 0.20784","0.72549, 0.62353, 0.15686","0.76987, 0.66176, 0.16087","0.82745, 0.62745, 0.21569","0.70588, 0.53725, 0.12549","0.7451, 0.66275, 0.27451","0.60784, 0.52941, 0.18824","0.65098, 0.51373, 0.18824",What is the color of the previous image?,2022-03-01_14h13.54.565,Representative Color,2021.2.3,MacIntel,60.0024001,,,,,,
,,,,,,,,,,,,,,,,,,,,,,,,,,,,,,,,,2022-03-01_14h13.54.565,Representative Color,2021.2.3,MacIntel,60.0024001,0,3,3,3,1,resources/trialSixtyFour.xlsx
,,,,,,,,-0.174578993,-0.044696181,1,0,0,4.2623,fifthChoice,4,"0.44713, 0.61369, 0.1255",8,0,0,0,17,1,resources/t4zpeppers.png,"0.35294, 0.47451, 0.15294","0.48235, 0.63529, 0.13725","0.37942, 0.51262, 0.16068","0.5104, 0.6743, 0.13948","0.41176, 0.59216, 0.11373","0.417, 0.55383, 0.14817","0.38255, 0.53277, 0.1372","0.44713, 0.61369, 0.1255",What is the color of the peppers in the previous image?,2022-03-01_14h13.54.565,Representative Color,2021.2.3,MacIntel,60.0024001,,,,,,
,,,,,,,,-0.174578993,-0.045234375,1,0,0,4.5486,fifthChoice,4,"0.79859, 0.58507, 0.48676",2,0,1,1,4,1,resources/t4Model-B.png,"0.73725, 0.54118, 0.45098","0.79859, 0.58507, 0.48676","0.72531, 0.40323, 0.30464","0.71373, 0.40784, 0.36078","0.8, 0.48235, 0.4","0.68235, 0.44314, 0.33333","0.64706, 0.45882, 0.36471","0.71765, 0.49804, 0.41176",What is the color of the person's skin in the previous image?,2022-03-01_14h13.54.565,Representative Color,2021.2.3,MacIntel,60.0024001,,,,,,
,,,,,,,,0.146914062,-0.056280382,1,0,0,2.8633,sixthChoice,5,"0.79679, 0.57109, 0.41322",2,0,2,2,7,1,resources/t4Model-LC.png,"0.73725, 0.52941, 0.38431","0.79679, 0.57109, 0.41322","0.66488, 0.37758, 0.19682","0.58431, 0.32157, 0.18431","0.61176, 0.34902, 0.18431","0.68627, 0.47059, 0.32941","0.81569, 0.61176, 0.47843","0.63529, 0.42353, 0.27451",What is the color of the person's skin in the previous image?,2022-03-01_14h13.54.565,Representative Color,2021.2.3,MacIntel,60.0024001,,,,,,
,,,,,,,,-0.154887153,-0.05530816,1,0,0,6.4484,fifthChoice,4,"0.55294, 0.31373, 0.19216",7,0,3,3,14,1,resources/t4Model-yl.png,"0.43529, 0.22353, 0.12157","0.48425, 0.24604, 0.13103","0.74365, 0.40389, 0.19507","0.56078, 0.26667, 0.1451","0.35294, 0.16078, 0.070588","0.6, 0.35294, 0.22353","0.55294, 0.31373, 0.19216","0.30588, 0.12549, 0.043137",What is the color of the person's skin in the previous image?,2022-03-01_14h13.54.565,Representative Color,2021.2.3,MacIntel,60.0024001,,,,,,
,,,,,,,,0.080429687,0.150186632,1,0,0,2.5471,secondChoice,1,"0.62574, 0.60526, 0.47382",7,0,4,4,0,1,resources/t4DSC_0016.png,"0.6, 0.58039, 0.4549","0.6564, 0.64356, 0.5619","0.65167, 0.63033, 0.49287","0.60392, 0.59216, 0.50196","0.60392, 0.60392, 0.55686","0.62839, 0.6118, 0.50808","0.62574, 0.60526, 0.47382","0.60418, 0.59802, 0.5294",What is the color of the wine in the previous image?,2022-03-01_14h13.54.565,Representative Color,2021.2.3,MacIntel,60.0024001,,,,,,
,,,,,,,,0.056072049,0.147061632,1,0,0,12.2128,secondChoice,1,"0.79714, 0.44966, 0.25005",3,0,5,5,5,1,resources/t4Model-J.png,"0.74118, 0.41961, 0.23529","0.52414, 0.27049, 0.13884","0.79714, 0.44966, 0.25005","0.63529, 0.38824, 0.21569","0.70588, 0.43922, 0.2549","0.64314, 0.33725, 0.18431","0.56863, 0.32157, 0.19216","0.4549, 0.23137, 0.12157",What is the color of the person's skin in the previous image?,2022-03-01_14h13.54.565,Representative Color,2021.2.3,MacIntel,60.0024001,,,,,,
,,,,,,,,0.03140191,0.148715278,1,0,0,3.5652,secondChoice,1,"0.68099, 0.43522, 0.27061",7,0,6,6,13,1,resources/t4Model-ll.png,"0.59608, 0.36863, 0.23137","0.66275, 0.4, 0.21961","0.71741, 0.4315, 0.23453","0.65882, 0.43137, 0.29412","0.62936, 0.38426, 0.22577","0.54887, 0.3251, 0.1898","0.68099, 0.43522, 0.27061","0.58137, 0.34036, 0.18379",What is the color of the person's skin in the previous image?,2022-03-01_14h13.54.565,Representative Color,2021.2.3,MacIntel,60.0024001,,,,,,
,,,,,,,,-0.146280382,-0.037873264,1,0,0,1.8137,fifthChoice,4,"0.8714, 0.46756, 0.23566",2,0,7,7,16,1,resources/t4mysteryLightOr_hdrOff.png,"0.81569, 0.43922, 0.22353","0.8714, 0.46756, 0.23566","0.91794, 0.40919, 0.093393","0.77255, 0.29804, 0.07451","0.9098, 0.55294, 0.30196","0.88627, 0.50196, 0.23922","0.72941, 0.36471, 0.19608","0.81569, 0.36863, 0.13333",What is the color of the tomato in the previous image?,2022-03-01_14h13.54.565,Representative Color,2021.2.3,MacIntel,60.0024001,,,,,,
,,,,,,,,-0.092664931,-0.193142361,1,0,0,4.9807,seventhChoice,6,"0.71412, 0.48874, 0.36979",8,0,8,8,8,1,resources/t4Model-M.png,"0.72549, 0.51373, 0.4","0.65098, 0.35294, 0.25098","0.78605, 0.55541, 0.43138","0.68985, 0.4335, 0.3243","0.6843, 0.46832, 0.35448","0.71971, 0.45365, 0.33937","0.73744, 0.47932, 0.37149","0.71412, 0.48874, 0.36979",What is the color of the person's skin in the previous image?,2022-03-01_14h13.54.565,Representative Color,2021.2.3,MacIntel,60.0024001,,,,,,
,,,,,,,,0.21108941,-0.083155382,1,0,0,2.2155,sixthChoice,5,"0.30588, 0.41569, 0.18824",1,0,9,9,19,1,resources/t4zgrass.png,"0.30588, 0.41569, 0.18824","0.36341, 0.42546, 0.21823","0.33318, 0.45547, 0.20282","0.32157, 0.38039, 0.19216","0.27231, 0.37211, 0.15269","0.31422, 0.39807, 0.19031","0.34895, 0.44055, 0.21071","0.28046, 0.35484, 0.15506",What is the color of the grass in the previous image?,2022-03-01_14h13.54.565,Representative Color,2021.2.3,MacIntel,60.0024001,,,,,,
,,,,,,,,-0.190455729,0.050538194,1,0,0,1.5305,thirdChoice,2,"0.48627, 0.6, 0.78824",5,0,10,10,18,1,resources/t4sky.png,"0.38039, 0.50588, 0.72941","0.60278, 0.71367, 0.87522","0.41001, 0.54883, 0.79353","0.54118, 0.65098, 0.81961","0.48627, 0.6, 0.78824","0.39516, 0.52728, 0.76134","0.50889, 0.63012, 0.83447","0.4494, 0.57426, 0.79097",What is the color of the sky in the previous image?,2022-03-01_14h13.54.565,Representative Color,2021.2.3,MacIntel,60.0024001,,,,,,
,,,,,,,,0.096393229,0.173867187,1,0,0,4.297,secondChoice,1,"0.61176, 0.36078, 0.23137",7,0,11,11,6,1,resources/t4Model-L.png,"0.52549, 0.2902, 0.16471","0.61569, 0.30588, 0.18039","0.57757, 0.31686, 0.1774","0.66902, 0.33001, 0.19272","0.47843, 0.25098, 0.13333","0.65882, 0.4, 0.25882","0.61176, 0.36078, 0.23137","0.41961, 0.20784, 0.094118",What is the color of the person's skin in the previous image?,2022-03-01_14h13.54.565,Representative Color,2021.2.3,MacIntel,60.0024001,,,,,,
,,,,,,,,0.17327691,0.058975694,1,0,0,1.7984,fourthChoice,3,"0.66468, 0.4273, 0.28886",3,0,12,12,3,1,resources/t4Model-A.png,"0.60784, 0.39216, 0.26667","0.59216, 0.31765, 0.21569","0.66468, 0.4273, 0.28886","0.64755, 0.3451, 0.23286","0.72157, 0.47059, 0.33333","0.42353, 0.18824, 0.094118","0.50588, 0.29804, 0.19608","0.56078, 0.3451, 0.23529",What is the color of the person's skin in the previous image?,2022-03-01_14h13.54.565,Representative Color,2021.2.3,MacIntel,60.0024001,,,,,,
,,,,,,,,0.194986979,0.070577257,1,0,0,5.8467,fourthChoice,3,"0.7537, 0.51393, 0.381",2,0,13,13,10,1,resources/t4Model-Ol.png,"0.69412, 0.47451, 0.35294","0.7537, 0.51393, 0.381","0.75045, 0.43076, 0.25995","0.56863, 0.2902, 0.18039","0.52941, 0.28235, 0.15294","0.69412, 0.4, 0.24314","0.79608, 0.58039, 0.45098","0.58431, 0.37255, 0.24706",What is the color of the person's skin in the previous image?,2022-03-01_14h13.54.565,Representative Color,2021.2.3,MacIntel,60.0024001,,,,,,
,,,,,,,,-0.158984375,-0.074665799,1,0,0,3.1125,fifthChoice,4,"0.39608, 0.058824, 0.070588",1,0,14,14,2,1,resources/t4DSC_0025.png,"0.39608, 0.058824, 0.070588","0.21431, 0.034629, 0.057098","0.43656, 0.051112, 0.07439","0.51373, 0.35294, 0.40784","0.21961, 0.086275, 0.12549","0.33333, 0.019608, 0.031373","0.36078, 0.26667, 0.32157","0.48235, 0.22745, 0.26275",What is the color of the wine in the previous image?,2022-03-01_14h13.54.565,Representative Color,2021.2.3,MacIntel,60.0024001,,,,,,
,,,,,,,,-0.022938368,-0.180920139,1,0,0,4.0475,seventhChoice,6,"0.56863, 0.34902, 0.22353",1,0,15,15,11,1,resources/t4Model-R.png,"0.56863, 0.34902, 0.22353","0.54902, 0.27843, 0.15686","0.62375, 0.38114, 0.24213","0.60078, 0.30229, 0.16803","0.48235, 0.24314, 0.13333","0.65098, 0.41176, 0.28235","0.49412, 0.28627, 0.16471","0.54118, 0.31373, 0.19216",What is the color of the person's skin in the previous image?,2022-03-01_14h13.54.565,Representative Color,2021.2.3,MacIntel,60.0024001,,,,,,
,,,,,,,,0.050086806,0.16312934,1,0,0,2.063,secondChoice,1,"0.72549, 0.62353, 0.15686",2,0,16,16,15,1,resources/t4green22days1_hdrOff.png,"0.68235, 0.57255, 0.20784","0.72549, 0.62353, 0.15686","0.76987, 0.66176, 0.16087","0.82745, 0.62745, 0.21569","0.70588, 0.53725, 0.12549","0.7451, 0.66275, 0.27451","0.60784, 0.52941, 0.18824","0.65098, 0.51373, 0.18824",What is the color of the tomato in the previous image?,2022-03-01_14h13.54.565,Representative Color,2021.2.3,MacIntel,60.0024001,,,,,,
,,,,,,,,0.072786458,-0.172925347,1,0,0,3.0142,eighthChoice,7,"0.72941, 0.52157, 0.4",1,0,17,17,12,1,resources/t4Model-Y.png,"0.72941, 0.52157, 0.4","0.78972, 0.56355, 0.43105","0.64714, 0.32317, 0.22415","0.62353, 0.34902, 0.22353","0.59216, 0.29804, 0.20784","0.6902, 0.47843, 0.36471","0.80392, 0.60392, 0.49412","0.60784, 0.39216, 0.26275",What is the color of the person's skin in the previous image?,2022-03-01_14h13.54.565,Representative Color,2021.2.3,MacIntel,60.0024001,,,,,,
,,,,,,,,-0.161944444,-0.08328125,1,0,0,1.931,fifthChoice,4,"0.37836, 0.0080068, 0.055199",3,0,18,18,1,1,resources/t4DSC_0021.png,"0.16863, 0.027451, 0.035294","0.34118, 0.023529, 0.05098","0.37836, 0.0080068, 0.055199","0.37255, 0.12157, 0.18431","0.34902, 0.043137, 0.094118","0.41569, 0.23529, 0.29804","0.21569, 0.0078431, 0.019608","0.44314, 0.16863, 0.21961",What is the color of the wine in the previous image?,2022-03-01_14h13.54.565,Representative Color,2021.2.3,MacIntel,60.0024001,,,,,,
,,,,,,,,0.203368056,0.066697049,1,0,0,1.5802,fourthChoice,3,"0.38431, 0.14902, 0.047059",4,0,19,19,9,1,resources/t4Model-O.png,"0.31765, 0.15686, 0.090196","0.36342, 0.17598, 0.098248","0.55928, 0.25965, 0.13367","0.38431, 0.14902, 0.047059","0.22745, 0.098039, 0.05098","0.27161, 0.12707, 0.072951","0.41066, 0.19954, 0.10607","0.30444, 0.12352, 0.051246",What is the color of the person's skin in the previous image?,2022-03-01_14h13.54.565,Representative Color,2021.2.3,MacIntel,60.0024001,,,,,,
,,,,,,,,,,,,,,,,,,,,,,,,,,,,,,,,,2022-03-01_14h13.54.565,Representative Color,2021.2.3,MacIntel,60.0024001,0,4,4,4,1,resources/trialFull.xlsx
