textboxDate.text,textboxElectronicSignature.text,textboxAge.text,textboxInitials.text,sliderViewConditions.response,sliderColorScientist.response,sliderCVD.response,sliderGenderIdentification.response,mouseResponse.x,mouseResponse.y,mouseResponse.leftButton,mouseResponse.midButton,mouseResponse.rightButton,mouseResponse.time,mouseResponse.clicked_name,mouseResponseLocation,choiceColor,choiceIndex,trialsStimuli.thisRepN,trialsStimuli.thisTrialN,trialsStimuli.thisN,trialsStimuli.thisIndex,trialsStimuli.ran,File_Name,color1,color2,color3,color4,color5,color6,color7,color8,Question,date,expName,psychopyVersion,OS,frameRate,trialsBlock.thisRepN,trialsBlock.thisTrialN,trialsBlock.thisN,trialsBlock.thisIndex,trialsBlock.ran,cond_file
3/4/2022,886814CD79BFAD7A512267E97F372BDEBFFB92A9,,,2,1,2,2,-0.178571429,-0.06875,1,0,0,1.346,fifthChoice,4,"0.88235, 0.33333, 0.21176",4,0,0,0,3,1,resources/test_tomato_red.png,"0.80784, 0.27451, 0.18431","0.84314, 0.21961, 0.10196","0.86089, 0.28874, 0.19361","0.88235, 0.33333, 0.21176","0.74118, 0.22745, 0.16863","0.79608, 0.21569, 0.12941","0.77439, 0.25104, 0.17647","0.85235, 0.25555, 0.14958",What is the color of the tomato in the previous image?,2022-03-04_11h12.19.049,Representative Color,2021.2.3,MacIntel,38.46153846,,,,,,
,,,,,,,,-0.058035714,0.14375,1,0,0,1.728,firstChoice,0,"0.27689, 0.50341, 0.83205",3,0,1,1,2,1,resources/test_sky.png,"0.26275, 0.46667, 0.76863","0.2, 0.35686, 0.6902","0.27689, 0.50341, 0.83205","0.21961, 0.41176, 0.72157","0.2415, 0.43907, 0.74504","0.21025, 0.38424, 0.70588","0.35291, 0.58434, 0.85098","0.42745, 0.60784, 0.84314",What is the color of the previous image?,2022-03-04_11h12.19.049,Representative Color,2021.2.3,MacIntel,38.46153846,,,,,,
,,,,,,,,0.055357143,0.169642857,1,0,0,1.796,secondChoice,1,"0.50196, 0.52941, 0.19608",1,0,2,2,1,1,resources/test_tomato_green.png,"0.50196, 0.52941, 0.19608","0.57255, 0.58431, 0.12549","0.53942, 0.56976, 0.20711","0.6093, 0.62259, 0.12696","0.68627, 0.71373, 0.26667","0.4549, 0.49412, 0.11765","0.61961, 0.64314, 0.26667","0.37647, 0.41569, 0.12941",What is the color of the previous image?,2022-03-04_11h12.19.049,Representative Color,2021.2.3,MacIntel,38.46153846,,,,,,
,,,,,,,,0.171428571,0.051785714,1,0,0,3.076,fourthChoice,3,"0.6, 0.043137, 0.035294",2,0,3,3,0,1,resources/test_wine.png,"0.40784, 0.070588, 0.070588","0.6, 0.043137, 0.035294","0.44887, 0.066156, 0.074042","0.49412, 0.090196, 0.062745","0.53725, 0.011765, 0.0078431","0.30196, 0.066667, 0.062745","0.35427, 0.069613, 0.067232","0.41756, 0.054997, 0.039926",What is the color of the previous image?,2022-03-04_11h12.19.049,Representative Color,2021.2.3,MacIntel,38.46153846,,,,,,
,,,,,,,,,,,,,,,,,,,,,,,,,,,,,,,,,2022-03-04_11h12.19.049,Representative Color,2021.2.3,MacIntel,38.46153846,0,0,0,0,1,resources/training.xlsx
,,,,,,,,-0.15625,0.040178571,1,0,0,1.991,thirdChoice,2,"0.60392, 0.59216, 0.50196",4,0,0,0,0,1,resources/t1DSC_0016.png,"0.6, 0.58039, 0.4549","0.6564, 0.64356, 0.5619","0.65167, 0.63033, 0.49287","0.60392, 0.59216, 0.50196","0.60392, 0.60392, 0.55686","0.62839, 0.6118, 0.50808","0.62574, 0.60526, 0.47382","0.60418, 0.59802, 0.5294",What is the color of the previous image?,2022-03-04_11h12.19.049,Representative Color,2021.2.3,MacIntel,38.46153846,,,,,,
,,,,,,,,-0.05,0.15625,1,0,0,2.78,firstChoice,0,"0.33333, 0.019608, 0.031373",6,0,1,1,2,1,resources/t1DSC_0025.png,"0.39608, 0.058824, 0.070588","0.21431, 0.034629, 0.057098","0.43656, 0.051112, 0.07439","0.51373, 0.35294, 0.40784","0.21961, 0.086275, 0.12549","0.33333, 0.019608, 0.031373","0.36078, 0.26667, 0.32157","0.48235, 0.22745, 0.26275",What is the color of the previous image?,2022-03-04_11h12.19.049,Representative Color,2021.2.3,MacIntel,38.46153846,,,,,,
,,,,,,,,0.158035714,0.03125,1,0,0,1.745,fourthChoice,3,"0.36342, 0.17598, 0.098248",2,0,2,2,9,1,resources/t1Model-O.png,"0.31765, 0.15686, 0.090196","0.36342, 0.17598, 0.098248","0.55928, 0.25965, 0.13367","0.38431, 0.14902, 0.047059","0.22745, 0.098039, 0.05098","0.27161, 0.12707, 0.072951","0.41066, 0.19954, 0.10607","0.30444, 0.12352, 0.051246",What is the color of the previous image?,2022-03-04_11h12.19.049,Representative Color,2021.2.3,MacIntel,38.46153846,,,,,,
,,,,,,,,-0.14375,0.057142857,1,0,0,0.973,thirdChoice,2,"0.77255, 0.29804, 0.07451",4,0,3,3,16,1,resources/t1mysteryLightOr_hdrOff.png,"0.81569, 0.43922, 0.22353","0.8714, 0.46756, 0.23566","0.91794, 0.40919, 0.093393","0.77255, 0.29804, 0.07451","0.9098, 0.55294, 0.30196","0.88627, 0.50196, 0.23922","0.72941, 0.36471, 0.19608","0.81569, 0.36863, 0.13333",What is the color of the previous image?,2022-03-04_11h12.19.049,Representative Color,2021.2.3,MacIntel,38.46153846,,,,,,
,,,,,,,,0.069642857,0.1625,1,0,0,1.397,secondChoice,1,"0.37942, 0.51262, 0.16068",3,0,4,4,17,1,resources/t1zpeppers.png,"0.35294, 0.47451, 0.15294","0.48235, 0.63529, 0.13725","0.37942, 0.51262, 0.16068","0.5104, 0.6743, 0.13948","0.41176, 0.59216, 0.11373","0.417, 0.55383, 0.14817","0.38255, 0.53277, 0.1372","0.44713, 0.61369, 0.1255",What is the color of the previous image?,2022-03-04_11h12.19.049,Representative Color,2021.2.3,MacIntel,38.46153846,,,,,,
,,,,,,,,0.175,-0.066071429,1,0,0,1.731,sixthChoice,5,"0.57757, 0.31686, 0.1774",3,0,5,5,6,1,resources/t1Model-L.png,"0.52549, 0.2902, 0.16471","0.61569, 0.30588, 0.18039","0.57757, 0.31686, 0.1774","0.66902, 0.33001, 0.19272","0.47843, 0.25098, 0.13333","0.65882, 0.4, 0.25882","0.61176, 0.36078, 0.23137","0.41961, 0.20784, 0.094118",What is the color of the previous image?,2022-03-04_11h12.19.049,Representative Color,2021.2.3,MacIntel,38.46153846,,,,,,
,,,,,,,,-0.200892857,-0.039285714,1,0,0,3.264,fifthChoice,4,"0.73725, 0.54118, 0.45098",1,0,6,6,4,1,resources/t1Model-B.png,"0.73725, 0.54118, 0.45098","0.79859, 0.58507, 0.48676","0.72531, 0.40323, 0.30464","0.71373, 0.40784, 0.36078","0.8, 0.48235, 0.4","0.68235, 0.44314, 0.33333","0.64706, 0.45882, 0.36471","0.71765, 0.49804, 0.41176",What is the color of the previous image?,2022-03-04_11h12.19.049,Representative Color,2021.2.3,MacIntel,38.46153846,,,,,,
,,,,,,,,0.15,-0.078571429,1,0,0,1.565,sixthChoice,5,"0.65098, 0.41176, 0.28235",6,0,7,7,11,1,resources/t1Model-R.png,"0.56863, 0.34902, 0.22353","0.54902, 0.27843, 0.15686","0.62375, 0.38114, 0.24213","0.60078, 0.30229, 0.16803","0.48235, 0.24314, 0.13333","0.65098, 0.41176, 0.28235","0.49412, 0.28627, 0.16471","0.54118, 0.31373, 0.19216",What is the color of the previous image?,2022-03-04_11h12.19.049,Representative Color,2021.2.3,MacIntel,38.46153846,,,,,,
,,,,,,,,0.185714286,0.048214286,1,0,0,1.393,fourthChoice,3,"0.6843, 0.46832, 0.35448",5,0,8,8,8,1,resources/t1Model-M.png,"0.72549, 0.51373, 0.4","0.65098, 0.35294, 0.25098","0.78605, 0.55541, 0.43138","0.68985, 0.4335, 0.3243","0.6843, 0.46832, 0.35448","0.71971, 0.45365, 0.33937","0.73744, 0.47932, 0.37149","0.71412, 0.48874, 0.36979",What is the color of the previous image?,2022-03-04_11h12.19.049,Representative Color,2021.2.3,MacIntel,38.46153846,,,,,,
,,,,,,,,-0.16875,-0.066071429,1,0,0,1.352,fifthChoice,4,"0.52414, 0.27049, 0.13884",2,0,9,9,5,1,resources/t1Model-J.png,"0.74118, 0.41961, 0.23529","0.52414, 0.27049, 0.13884","0.79714, 0.44966, 0.25005","0.63529, 0.38824, 0.21569","0.70588, 0.43922, 0.2549","0.64314, 0.33725, 0.18431","0.56863, 0.32157, 0.19216","0.4549, 0.23137, 0.12157",What is the color of the previous image?,2022-03-04_11h12.19.049,Representative Color,2021.2.3,MacIntel,38.46153846,,,,,,
,,,,,,,,-0.0625,0.175,1,0,0,3.722,firstChoice,0,"0.48425, 0.24604, 0.13103",2,0,10,10,14,1,resources/t1Model-yl.png,"0.43529, 0.22353, 0.12157","0.48425, 0.24604, 0.13103","0.74365, 0.40389, 0.19507","0.56078, 0.26667, 0.1451","0.35294, 0.16078, 0.070588","0.6, 0.35294, 0.22353","0.55294, 0.31373, 0.19216","0.30588, 0.12549, 0.043137",What is the color of the previous image?,2022-03-04_11h12.19.049,Representative Color,2021.2.3,MacIntel,38.46153846,,,,,,
,,,,,,,,-0.169642857,-0.046428571,1,0,0,2.873,fifthChoice,4,"0.16863, 0.027451, 0.035294",1,0,11,11,1,1,resources/t1DSC_0021.png,"0.16863, 0.027451, 0.035294","0.34118, 0.023529, 0.05098","0.37836, 0.0080068, 0.055199","0.37255, 0.12157, 0.18431","0.34902, 0.043137, 0.094118","0.41569, 0.23529, 0.29804","0.21569, 0.0078431, 0.019608","0.44314, 0.16863, 0.21961",What is the color of the previous image?,2022-03-04_11h12.19.049,Representative Color,2021.2.3,MacIntel,38.46153846,,,,,,
,,,,,,,,0.035714286,0.146428571,1,0,0,1.581,secondChoice,1,"0.75045, 0.43076, 0.25995",3,0,12,12,10,1,resources/t1Model-Ol.png,"0.69412, 0.47451, 0.35294","0.7537, 0.51393, 0.381","0.75045, 0.43076, 0.25995","0.56863, 0.2902, 0.18039","0.52941, 0.28235, 0.15294","0.69412, 0.4, 0.24314","0.79608, 0.58039, 0.45098","0.58431, 0.37255, 0.24706",What is the color of the previous image?,2022-03-04_11h12.19.049,Representative Color,2021.2.3,MacIntel,38.46153846,,,,,,
,,,,,,,,0.06875,0.164285714,1,0,0,0.846,secondChoice,1,"0.66468, 0.4273, 0.28886",3,0,13,13,3,1,resources/t1Model-A.png,"0.60784, 0.39216, 0.26667","0.59216, 0.31765, 0.21569","0.66468, 0.4273, 0.28886","0.64755, 0.3451, 0.23286","0.72157, 0.47059, 0.33333","0.42353, 0.18824, 0.094118","0.50588, 0.29804, 0.19608","0.56078, 0.3451, 0.23529",What is the color of the previous image?,2022-03-04_11h12.19.049,Representative Color,2021.2.3,MacIntel,38.46153846,,,,,,
,,,,,,,,0.171428571,0.039285714,1,0,0,3.863,fourthChoice,3,"0.33318, 0.45547, 0.20282",3,0,14,14,19,1,resources/t1zgrass.png,"0.30588, 0.41569, 0.18824","0.36341, 0.42546, 0.21823","0.33318, 0.45547, 0.20282","0.32157, 0.38039, 0.19216","0.27231, 0.37211, 0.15269","0.31422, 0.39807, 0.19031","0.34895, 0.44055, 0.21071","0.28046, 0.35484, 0.15506",What is the color of the previous image?,2022-03-04_11h12.19.049,Representative Color,2021.2.3,MacIntel,38.46153846,,,,,,
,,,,,,,,0.086607143,0.1625,1,0,0,2.265,secondChoice,1,"0.73725, 0.52941, 0.38431",1,0,15,15,7,1,resources/t1Model-LC.png,"0.73725, 0.52941, 0.38431","0.79679, 0.57109, 0.41322","0.66488, 0.37758, 0.19682","0.58431, 0.32157, 0.18431","0.61176, 0.34902, 0.18431","0.68627, 0.47059, 0.32941","0.81569, 0.61176, 0.47843","0.63529, 0.42353, 0.27451",What is the color of the previous image?,2022-03-04_11h12.19.049,Representative Color,2021.2.3,MacIntel,38.46153846,,,,,,
,,,,,,,,-0.159821429,0.06875,1,0,0,0.821,thirdChoice,2,"0.68099, 0.43522, 0.27061",7,0,16,16,13,1,resources/t1Model-ll.png,"0.59608, 0.36863, 0.23137","0.66275, 0.4, 0.21961","0.71741, 0.4315, 0.23453","0.65882, 0.43137, 0.29412","0.62936, 0.38426, 0.22577","0.54887, 0.3251, 0.1898","0.68099, 0.43522, 0.27061","0.58137, 0.34036, 0.18379",What is the color of the previous image?,2022-03-04_11h12.19.049,Representative Color,2021.2.3,MacIntel,38.46153846,,,,,,
,,,,,,,,-0.066964286,0.170535714,1,0,0,2.913,firstChoice,0,"0.50889, 0.63012, 0.83447",7,0,17,17,18,1,resources/t1sky.png,"0.38039, 0.50588, 0.72941","0.60278, 0.71367, 0.87522","0.41001, 0.54883, 0.79353","0.54118, 0.65098, 0.81961","0.48627, 0.6, 0.78824","0.39516, 0.52728, 0.76134","0.50889, 0.63012, 0.83447","0.4494, 0.57426, 0.79097",What is the color of the previous image?,2022-03-04_11h12.19.049,Representative Color,2021.2.3,MacIntel,38.46153846,,,,,,
,,,,,,,,-0.065178571,0.171428571,1,0,0,1.199,firstChoice,0,"0.68235, 0.57255, 0.20784",1,0,18,18,15,1,resources/t1green22days1_hdrOff.png,"0.68235, 0.57255, 0.20784","0.72549, 0.62353, 0.15686","0.76987, 0.66176, 0.16087","0.82745, 0.62745, 0.21569","0.70588, 0.53725, 0.12549","0.7451, 0.66275, 0.27451","0.60784, 0.52941, 0.18824","0.65098, 0.51373, 0.18824",What is the color of the previous image?,2022-03-04_11h12.19.049,Representative Color,2021.2.3,MacIntel,38.46153846,,,,,,
,,,,,,,,0.163392857,-0.058035714,1,0,0,1.846,sixthChoice,5,"0.78972, 0.56355, 0.43105",2,0,19,19,12,1,resources/t1Model-Y.png,"0.72941, 0.52157, 0.4","0.78972, 0.56355, 0.43105","0.64714, 0.32317, 0.22415","0.62353, 0.34902, 0.22353","0.59216, 0.29804, 0.20784","0.6902, 0.47843, 0.36471","0.80392, 0.60392, 0.49412","0.60784, 0.39216, 0.26275",What is the color of the previous image?,2022-03-04_11h12.19.049,Representative Color,2021.2.3,MacIntel,38.46153846,,,,,,
,,,,,,,,,,,,,,,,,,,,,,,,,,,,,,,,,2022-03-04_11h12.19.049,Representative Color,2021.2.3,MacIntel,38.46153846,0,1,1,1,1,resources/trialScramble.xlsx
,,,,,,,,0.058928571,0.158928571,1,0,0,2.365,secondChoice,1,"0.78605, 0.55541, 0.43138",3,0,0,0,8,1,resources/t2Model-M.png,"0.72549, 0.51373, 0.4","0.65098, 0.35294, 0.25098","0.78605, 0.55541, 0.43138","0.68985, 0.4335, 0.3243","0.6843, 0.46832, 0.35448","0.71971, 0.45365, 0.33937","0.73744, 0.47932, 0.37149","0.71412, 0.48874, 0.36979",What is the color of the previous image?,2022-03-04_11h12.19.049,Representative Color,2021.2.3,MacIntel,38.46153846,,,,,,
,,,,,,,,0.171428571,0.042857143,1,0,0,1.9,fourthChoice,3,"0.65098, 0.41176, 0.28235",6,0,1,1,11,1,resources/t2Model-R.png,"0.56863, 0.34902, 0.22353","0.54902, 0.27843, 0.15686","0.62375, 0.38114, 0.24213","0.60078, 0.30229, 0.16803","0.48235, 0.24314, 0.13333","0.65098, 0.41176, 0.28235","0.49412, 0.28627, 0.16471","0.54118, 0.31373, 0.19216",What is the color of the previous image?,2022-03-04_11h12.19.049,Representative Color,2021.2.3,MacIntel,38.46153846,,,,,,
,,,,,,,,0.166964286,0.050892857,1,0,0,0.748,fourthChoice,3,"0.68099, 0.43522, 0.27061",7,0,2,2,13,1,resources/t2Model-ll.png,"0.59608, 0.36863, 0.23137","0.66275, 0.4, 0.21961","0.71741, 0.4315, 0.23453","0.65882, 0.43137, 0.29412","0.62936, 0.38426, 0.22577","0.54887, 0.3251, 0.1898","0.68099, 0.43522, 0.27061","0.58137, 0.34036, 0.18379",What is the color of the previous image?,2022-03-04_11h12.19.049,Representative Color,2021.2.3,MacIntel,38.46153846,,,,,,
,,,,,,,,0.071428571,0.157142857,1,0,0,2.054,secondChoice,1,"0.39608, 0.058824, 0.070588",1,0,3,3,2,1,resources/t2DSC_0025.png,"0.39608, 0.058824, 0.070588","0.21431, 0.034629, 0.057098","0.43656, 0.051112, 0.07439","0.51373, 0.35294, 0.40784","0.21961, 0.086275, 0.12549","0.33333, 0.019608, 0.031373","0.36078, 0.26667, 0.32157","0.48235, 0.22745, 0.26275",What is the color of the previous image?,2022-03-04_11h12.19.049,Representative Color,2021.2.3,MacIntel,38.46153846,,,,,,
,,,,,,,,-0.0625,-0.213392857,1,0,0,3.41,seventhChoice,6,"0.79608, 0.58039, 0.45098",7,0,4,4,10,1,resources/t2Model-Ol.png,"0.69412, 0.47451, 0.35294","0.7537, 0.51393, 0.381","0.75045, 0.43076, 0.25995","0.56863, 0.2902, 0.18039","0.52941, 0.28235, 0.15294","0.69412, 0.4, 0.24314","0.79608, 0.58039, 0.45098","0.58431, 0.37255, 0.24706",What is the color of the previous image?,2022-03-04_11h12.19.049,Representative Color,2021.2.3,MacIntel,38.46153846,,,,,,
,,,,,,,,0.059821429,-0.185714286,1,0,0,5.061,eighthChoice,7,"0.50889, 0.63012, 0.83447",7,0,5,5,18,1,resources/t2sky.png,"0.38039, 0.50588, 0.72941","0.60278, 0.71367, 0.87522","0.41001, 0.54883, 0.79353","0.54118, 0.65098, 0.81961","0.48627, 0.6, 0.78824","0.39516, 0.52728, 0.76134","0.50889, 0.63012, 0.83447","0.4494, 0.57426, 0.79097",What is the color of the previous image?,2022-03-04_11h12.19.049,Representative Color,2021.2.3,MacIntel,38.46153846,,,,,,
,,,,,,,,-0.166964286,-0.041071429,1,0,0,0.91,fifthChoice,4,"0.80392, 0.60392, 0.49412",7,0,6,6,12,1,resources/t2Model-Y.png,"0.72941, 0.52157, 0.4","0.78972, 0.56355, 0.43105","0.64714, 0.32317, 0.22415","0.62353, 0.34902, 0.22353","0.59216, 0.29804, 0.20784","0.6902, 0.47843, 0.36471","0.80392, 0.60392, 0.49412","0.60784, 0.39216, 0.26275",What is the color of the previous image?,2022-03-04_11h12.19.049,Representative Color,2021.2.3,MacIntel,38.46153846,,,,,,
,,,,,,,,0.049107143,0.180357143,1,0,0,2.098,secondChoice,1,"0.48425, 0.24604, 0.13103",2,0,7,7,14,1,resources/t2Model-yl.png,"0.43529, 0.22353, 0.12157","0.48425, 0.24604, 0.13103","0.74365, 0.40389, 0.19507","0.56078, 0.26667, 0.1451","0.35294, 0.16078, 0.070588","0.6, 0.35294, 0.22353","0.55294, 0.31373, 0.19216","0.30588, 0.12549, 0.043137",What is the color of the previous image?,2022-03-04_11h12.19.049,Representative Color,2021.2.3,MacIntel,38.46153846,,,,,,
,,,,,,,,-0.166964286,0.058035714,1,0,0,1.599,thirdChoice,2,"0.81569, 0.61176, 0.47843",7,0,8,8,7,1,resources/t2Model-LC.png,"0.73725, 0.52941, 0.38431","0.79679, 0.57109, 0.41322","0.66488, 0.37758, 0.19682","0.58431, 0.32157, 0.18431","0.61176, 0.34902, 0.18431","0.68627, 0.47059, 0.32941","0.81569, 0.61176, 0.47843","0.63529, 0.42353, 0.27451",What is the color of the previous image?,2022-03-04_11h12.19.049,Representative Color,2021.2.3,MacIntel,38.46153846,,,,,,
,,,,,,,,0.16875,0.03125,1,0,0,2.437,fourthChoice,3,"0.56078, 0.3451, 0.23529",8,0,9,9,3,1,resources/t2Model-A.png,"0.60784, 0.39216, 0.26667","0.59216, 0.31765, 0.21569","0.66468, 0.4273, 0.28886","0.64755, 0.3451, 0.23286","0.72157, 0.47059, 0.33333","0.42353, 0.18824, 0.094118","0.50588, 0.29804, 0.19608","0.56078, 0.3451, 0.23529",What is the color of the previous image?,2022-03-04_11h12.19.049,Representative Color,2021.2.3,MacIntel,38.46153846,,,,,,
,,,,,,,,-0.05,0.179464286,1,0,0,2.848,firstChoice,0,"0.62574, 0.60526, 0.47382",7,0,10,10,0,1,resources/t2DSC_0016.png,"0.6, 0.58039, 0.4549","0.6564, 0.64356, 0.5619","0.65167, 0.63033, 0.49287","0.60392, 0.59216, 0.50196","0.60392, 0.60392, 0.55686","0.62839, 0.6118, 0.50808","0.62574, 0.60526, 0.47382","0.60418, 0.59802, 0.5294",What is the color of the previous image?,2022-03-04_11h12.19.049,Representative Color,2021.2.3,MacIntel,38.46153846,,,,,,
,,,,,,,,0.185714286,0.092857143,1,0,0,1.532,fourthChoice,3,"0.34895, 0.44055, 0.21071",7,0,11,11,19,1,resources/t2zgrass.png,"0.30588, 0.41569, 0.18824","0.36341, 0.42546, 0.21823","0.33318, 0.45547, 0.20282","0.32157, 0.38039, 0.19216","0.27231, 0.37211, 0.15269","0.31422, 0.39807, 0.19031","0.34895, 0.44055, 0.21071","0.28046, 0.35484, 0.15506",What is the color of the previous image?,2022-03-04_11h12.19.049,Representative Color,2021.2.3,MacIntel,38.46153846,,,,,,
,,,,,,,,-0.054464286,0.164285714,1,0,0,1.832,firstChoice,0,"0.38431, 0.14902, 0.047059",4,0,12,12,9,1,resources/t2Model-O.png,"0.31765, 0.15686, 0.090196","0.36342, 0.17598, 0.098248","0.55928, 0.25965, 0.13367","0.38431, 0.14902, 0.047059","0.22745, 0.098039, 0.05098","0.27161, 0.12707, 0.072951","0.41066, 0.19954, 0.10607","0.30444, 0.12352, 0.051246",What is the color of the previous image?,2022-03-04_11h12.19.049,Representative Color,2021.2.3,MacIntel,38.46153846,,,,,,
,,,,,,,,0.070535714,0.154464286,1,0,0,0.998,secondChoice,1,"0.34902, 0.043137, 0.094118",5,0,13,13,1,1,resources/t2DSC_0021.png,"0.16863, 0.027451, 0.035294","0.34118, 0.023529, 0.05098","0.37836, 0.0080068, 0.055199","0.37255, 0.12157, 0.18431","0.34902, 0.043137, 0.094118","0.41569, 0.23529, 0.29804","0.21569, 0.0078431, 0.019608","0.44314, 0.16863, 0.21961",What is the color of the previous image?,2022-03-04_11h12.19.049,Representative Color,2021.2.3,MacIntel,38.46153846,,,,,,
,,,,,,,,-0.064285714,0.145535714,1,0,0,0.95,firstChoice,0,"0.91794, 0.40919, 0.093393",3,0,14,14,16,1,resources/t2mysteryLightOr_hdrOff.png,"0.81569, 0.43922, 0.22353","0.8714, 0.46756, 0.23566","0.91794, 0.40919, 0.093393","0.77255, 0.29804, 0.07451","0.9098, 0.55294, 0.30196","0.88627, 0.50196, 0.23922","0.72941, 0.36471, 0.19608","0.81569, 0.36863, 0.13333",What is the color of the previous image?,2022-03-04_11h12.19.049,Representative Color,2021.2.3,MacIntel,38.46153846,,,,,,
,,,,,,,,-0.148214286,0.067857143,1,0,0,1.196,thirdChoice,2,"0.79859, 0.58507, 0.48676",2,0,15,15,4,1,resources/t2Model-B.png,"0.73725, 0.54118, 0.45098","0.79859, 0.58507, 0.48676","0.72531, 0.40323, 0.30464","0.71373, 0.40784, 0.36078","0.8, 0.48235, 0.4","0.68235, 0.44314, 0.33333","0.64706, 0.45882, 0.36471","0.71765, 0.49804, 0.41176",What is the color of the previous image?,2022-03-04_11h12.19.049,Representative Color,2021.2.3,MacIntel,38.46153846,,,,,,
,,,,,,,,0.079464286,0.191964286,1,0,0,0.746,secondChoice,1,"0.4549, 0.23137, 0.12157",8,0,16,16,5,1,resources/t2Model-J.png,"0.74118, 0.41961, 0.23529","0.52414, 0.27049, 0.13884","0.79714, 0.44966, 0.25005","0.63529, 0.38824, 0.21569","0.70588, 0.43922, 0.2549","0.64314, 0.33725, 0.18431","0.56863, 0.32157, 0.19216","0.4549, 0.23137, 0.12157",What is the color of the previous image?,2022-03-04_11h12.19.049,Representative Color,2021.2.3,MacIntel,38.46153846,,,,,,
,,,,,,,,0.160714286,0.06875,1,0,0,1.397,fourthChoice,3,"0.5104, 0.6743, 0.13948",4,0,17,17,17,1,resources/t2zpeppers.png,"0.35294, 0.47451, 0.15294","0.48235, 0.63529, 0.13725","0.37942, 0.51262, 0.16068","0.5104, 0.6743, 0.13948","0.41176, 0.59216, 0.11373","0.417, 0.55383, 0.14817","0.38255, 0.53277, 0.1372","0.44713, 0.61369, 0.1255",What is the color of the previous image?,2022-03-04_11h12.19.049,Representative Color,2021.2.3,MacIntel,38.46153846,,,,,,
,,,,,,,,0.158035714,0.039285714,1,0,0,1.127,fourthChoice,3,"0.72549, 0.62353, 0.15686",2,0,18,18,15,1,resources/t2green22days1_hdrOff.png,"0.68235, 0.57255, 0.20784","0.72549, 0.62353, 0.15686","0.76987, 0.66176, 0.16087","0.82745, 0.62745, 0.21569","0.70588, 0.53725, 0.12549","0.7451, 0.66275, 0.27451","0.60784, 0.52941, 0.18824","0.65098, 0.51373, 0.18824",What is the color of the previous image?,2022-03-04_11h12.19.049,Representative Color,2021.2.3,MacIntel,38.46153846,,,,,,
,,,,,,,,0.045535714,-0.140178571,1,0,0,1.511,eighthChoice,7,"0.65882, 0.4, 0.25882",6,0,19,19,6,1,resources/t2Model-L.png,"0.52549, 0.2902, 0.16471","0.61569, 0.30588, 0.18039","0.57757, 0.31686, 0.1774","0.66902, 0.33001, 0.19272","0.47843, 0.25098, 0.13333","0.65882, 0.4, 0.25882","0.61176, 0.36078, 0.23137","0.41961, 0.20784, 0.094118",What is the color of the previous image?,2022-03-04_11h12.19.049,Representative Color,2021.2.3,MacIntel,38.46153846,,,,,,
,,,,,,,,,,,,,,,,,,,,,,,,,,,,,,,,,2022-03-04_11h12.19.049,Representative Color,2021.2.3,MacIntel,38.46153846,0,2,2,2,1,resources/trialSixteen.xlsx
,,,,,,,,-0.169642857,-0.060714286,1,0,0,1.432,fifthChoice,4,"0.65882, 0.4, 0.25882",6,0,0,0,6,1,resources/t3Model-L.png,"0.52549, 0.2902, 0.16471","0.61569, 0.30588, 0.18039","0.57757, 0.31686, 0.1774","0.66902, 0.33001, 0.19272","0.47843, 0.25098, 0.13333","0.65882, 0.4, 0.25882","0.61176, 0.36078, 0.23137","0.41961, 0.20784, 0.094118",What is the color of the previous image?,2022-03-04_11h12.19.049,Representative Color,2021.2.3,MacIntel,38.46153846,,,,,,
,,,,,,,,0.050892857,0.185714286,1,0,0,1.249,secondChoice,1,"0.7537, 0.51393, 0.381",2,0,1,1,10,1,resources/t3Model-Ol.png,"0.69412, 0.47451, 0.35294","0.7537, 0.51393, 0.381","0.75045, 0.43076, 0.25995","0.56863, 0.2902, 0.18039","0.52941, 0.28235, 0.15294","0.69412, 0.4, 0.24314","0.79608, 0.58039, 0.45098","0.58431, 0.37255, 0.24706",What is the color of the previous image?,2022-03-04_11h12.19.049,Representative Color,2021.2.3,MacIntel,38.46153846,,,,,,
,,,,,,,,-0.063392857,-0.200892857,1,0,0,2.731,seventhChoice,6,"0.55294, 0.31373, 0.19216",7,0,2,2,14,1,resources/t3Model-yl.png,"0.43529, 0.22353, 0.12157","0.48425, 0.24604, 0.13103","0.74365, 0.40389, 0.19507","0.56078, 0.26667, 0.1451","0.35294, 0.16078, 0.070588","0.6, 0.35294, 0.22353","0.55294, 0.31373, 0.19216","0.30588, 0.12549, 0.043137",What is the color of the previous image?,2022-03-04_11h12.19.049,Representative Color,2021.2.3,MacIntel,38.46153846,,,,,,
,,,,,,,,0.161607143,0.086607143,1,0,0,2.814,fourthChoice,3,"0.60278, 0.71367, 0.87522",2,0,3,3,18,1,resources/t3sky.png,"0.38039, 0.50588, 0.72941","0.60278, 0.71367, 0.87522","0.41001, 0.54883, 0.79353","0.54118, 0.65098, 0.81961","0.48627, 0.6, 0.78824","0.39516, 0.52728, 0.76134","0.50889, 0.63012, 0.83447","0.4494, 0.57426, 0.79097",What is the color of the previous image?,2022-03-04_11h12.19.049,Representative Color,2021.2.3,MacIntel,38.46153846,,,,,,
,,,,,,,,-0.052678571,0.160714286,1,0,0,2.164,firstChoice,0,"0.6564, 0.64356, 0.5619",2,0,4,4,0,1,resources/t3DSC_0016.png,"0.6, 0.58039, 0.4549","0.6564, 0.64356, 0.5619","0.65167, 0.63033, 0.49287","0.60392, 0.59216, 0.50196","0.60392, 0.60392, 0.55686","0.62839, 0.6118, 0.50808","0.62574, 0.60526, 0.47382","0.60418, 0.59802, 0.5294",What is the color of the previous image?,2022-03-04_11h12.19.049,Representative Color,2021.2.3,MacIntel,38.46153846,,,,,,
,,,,,,,,-0.060714286,0.147321429,1,0,0,3.064,firstChoice,0,"0.71741, 0.4315, 0.23453",3,0,5,5,13,1,resources/t3Model-ll.png,"0.59608, 0.36863, 0.23137","0.66275, 0.4, 0.21961","0.71741, 0.4315, 0.23453","0.65882, 0.43137, 0.29412","0.62936, 0.38426, 0.22577","0.54887, 0.3251, 0.1898","0.68099, 0.43522, 0.27061","0.58137, 0.34036, 0.18379",What is the color of the previous image?,2022-03-04_11h12.19.049,Representative Color,2021.2.3,MacIntel,38.46153846,,,,,,
,,,,,,,,-0.173214286,0.042857143,1,0,0,2.478,thirdChoice,2,"0.62375, 0.38114, 0.24213",3,0,6,6,11,1,resources/t3Model-R.png,"0.56863, 0.34902, 0.22353","0.54902, 0.27843, 0.15686","0.62375, 0.38114, 0.24213","0.60078, 0.30229, 0.16803","0.48235, 0.24314, 0.13333","0.65098, 0.41176, 0.28235","0.49412, 0.28627, 0.16471","0.54118, 0.31373, 0.19216",What is the color of the previous image?,2022-03-04_11h12.19.049,Representative Color,2021.2.3,MacIntel,38.46153846,,,,,,
,,,,,,,,-0.040178571,0.159821429,1,0,0,1.061,firstChoice,0,"0.79859, 0.58507, 0.48676",2,0,7,7,4,1,resources/t3Model-B.png,"0.73725, 0.54118, 0.45098","0.79859, 0.58507, 0.48676","0.72531, 0.40323, 0.30464","0.71373, 0.40784, 0.36078","0.8, 0.48235, 0.4","0.68235, 0.44314, 0.33333","0.64706, 0.45882, 0.36471","0.71765, 0.49804, 0.41176",What is the color of the previous image?,2022-03-04_11h12.19.049,Representative Color,2021.2.3,MacIntel,38.46153846,,,,,,
,,,,,,,,-0.0375,-0.161607143,1,0,0,2.279,seventhChoice,6,"0.73725, 0.52941, 0.38431",1,0,8,8,7,1,resources/t3Model-LC.png,"0.73725, 0.52941, 0.38431","0.79679, 0.57109, 0.41322","0.66488, 0.37758, 0.19682","0.58431, 0.32157, 0.18431","0.61176, 0.34902, 0.18431","0.68627, 0.47059, 0.32941","0.81569, 0.61176, 0.47843","0.63529, 0.42353, 0.27451",What is the color of the previous image?,2022-03-04_11h12.19.049,Representative Color,2021.2.3,MacIntel,38.46153846,,,,,,
,,,,,,,,-0.150892857,0.066071429,1,0,0,1.51,thirdChoice,2,"0.7451, 0.66275, 0.27451",6,0,9,9,15,1,resources/t3green22days1_hdrOff.png,"0.68235, 0.57255, 0.20784","0.72549, 0.62353, 0.15686","0.76987, 0.66176, 0.16087","0.82745, 0.62745, 0.21569","0.70588, 0.53725, 0.12549","0.7451, 0.66275, 0.27451","0.60784, 0.52941, 0.18824","0.65098, 0.51373, 0.18824",What is the color of the previous image?,2022-03-04_11h12.19.049,Representative Color,2021.2.3,MacIntel,38.46153846,,,,,,
,,,,,,,,0.05,-0.1375,1,0,0,2.032,eighthChoice,7,"0.78605, 0.55541, 0.43138",3,0,10,10,8,1,resources/t3Model-M.png,"0.72549, 0.51373, 0.4","0.65098, 0.35294, 0.25098","0.78605, 0.55541, 0.43138","0.68985, 0.4335, 0.3243","0.6843, 0.46832, 0.35448","0.71971, 0.45365, 0.33937","0.73744, 0.47932, 0.37149","0.71412, 0.48874, 0.36979",What is the color of the previous image?,2022-03-04_11h12.19.049,Representative Color,2021.2.3,MacIntel,38.46153846,,,,,,
,,,,,,,,0.05625,0.155357143,1,0,0,1.753,secondChoice,1,"0.37836, 0.0080068, 0.055199",3,0,11,11,1,1,resources/t3DSC_0021.png,"0.16863, 0.027451, 0.035294","0.34118, 0.023529, 0.05098","0.37836, 0.0080068, 0.055199","0.37255, 0.12157, 0.18431","0.34902, 0.043137, 0.094118","0.41569, 0.23529, 0.29804","0.21569, 0.0078431, 0.019608","0.44314, 0.16863, 0.21961",What is the color of the previous image?,2022-03-04_11h12.19.049,Representative Color,2021.2.3,MacIntel,38.46153846,,,,,,
,,,,,,,,0.169642857,-0.072321429,1,0,0,2.481,sixthChoice,5,"0.31765, 0.15686, 0.090196",1,0,12,12,9,1,resources/t3Model-O.png,"0.31765, 0.15686, 0.090196","0.36342, 0.17598, 0.098248","0.55928, 0.25965, 0.13367","0.38431, 0.14902, 0.047059","0.22745, 0.098039, 0.05098","0.27161, 0.12707, 0.072951","0.41066, 0.19954, 0.10607","0.30444, 0.12352, 0.051246",What is the color of the previous image?,2022-03-04_11h12.19.049,Representative Color,2021.2.3,MacIntel,38.46153846,,,,,,
,,,,,,,,-0.053571429,-0.149107143,1,0,0,1.449,seventhChoice,6,"0.78972, 0.56355, 0.43105",2,0,13,13,12,1,resources/t3Model-Y.png,"0.72941, 0.52157, 0.4","0.78972, 0.56355, 0.43105","0.64714, 0.32317, 0.22415","0.62353, 0.34902, 0.22353","0.59216, 0.29804, 0.20784","0.6902, 0.47843, 0.36471","0.80392, 0.60392, 0.49412","0.60784, 0.39216, 0.26275",What is the color of the previous image?,2022-03-04_11h12.19.049,Representative Color,2021.2.3,MacIntel,38.46153846,,,,,,
,,,,,,,,-0.170535714,-0.045535714,1,0,0,3.702,fifthChoice,4,"0.39608, 0.058824, 0.070588",1,0,14,14,2,1,resources/t3DSC_0025.png,"0.39608, 0.058824, 0.070588","0.21431, 0.034629, 0.057098","0.43656, 0.051112, 0.07439","0.51373, 0.35294, 0.40784","0.21961, 0.086275, 0.12549","0.33333, 0.019608, 0.031373","0.36078, 0.26667, 0.32157","0.48235, 0.22745, 0.26275",What is the color of the previous image?,2022-03-04_11h12.19.049,Representative Color,2021.2.3,MacIntel,38.46153846,,,,,,
,,,,,,,,0.060714286,-0.152678571,1,0,0,2.848,eighthChoice,7,"0.52414, 0.27049, 0.13884",2,0,15,15,5,1,resources/t3Model-J.png,"0.74118, 0.41961, 0.23529","0.52414, 0.27049, 0.13884","0.79714, 0.44966, 0.25005","0.63529, 0.38824, 0.21569","0.70588, 0.43922, 0.2549","0.64314, 0.33725, 0.18431","0.56863, 0.32157, 0.19216","0.4549, 0.23137, 0.12157",What is the color of the previous image?,2022-03-04_11h12.19.049,Representative Color,2021.2.3,MacIntel,38.46153846,,,,,,
,,,,,,,,-0.174107143,0.067857143,1,0,0,1.5,thirdChoice,2,"0.50588, 0.29804, 0.19608",7,0,16,16,3,1,resources/t3Model-A.png,"0.60784, 0.39216, 0.26667","0.59216, 0.31765, 0.21569","0.66468, 0.4273, 0.28886","0.64755, 0.3451, 0.23286","0.72157, 0.47059, 0.33333","0.42353, 0.18824, 0.094118","0.50588, 0.29804, 0.19608","0.56078, 0.3451, 0.23529",What is the color of the previous image?,2022-03-04_11h12.19.049,Representative Color,2021.2.3,MacIntel,38.46153846,,,,,,
,,,,,,,,-0.04375,0.160714286,1,0,0,1.351,firstChoice,0,"0.31422, 0.39807, 0.19031",6,0,17,17,19,1,resources/t3zgrass.png,"0.30588, 0.41569, 0.18824","0.36341, 0.42546, 0.21823","0.33318, 0.45547, 0.20282","0.32157, 0.38039, 0.19216","0.27231, 0.37211, 0.15269","0.31422, 0.39807, 0.19031","0.34895, 0.44055, 0.21071","0.28046, 0.35484, 0.15506",What is the color of the previous image?,2022-03-04_11h12.19.049,Representative Color,2021.2.3,MacIntel,38.46153846,,,,,,
,,,,,,,,0.16875,0.079464286,1,0,0,1.28,fourthChoice,3,"0.417, 0.55383, 0.14817",6,0,18,18,17,1,resources/t3zpeppers.png,"0.35294, 0.47451, 0.15294","0.48235, 0.63529, 0.13725","0.37942, 0.51262, 0.16068","0.5104, 0.6743, 0.13948","0.41176, 0.59216, 0.11373","0.417, 0.55383, 0.14817","0.38255, 0.53277, 0.1372","0.44713, 0.61369, 0.1255",What is the color of the previous image?,2022-03-04_11h12.19.049,Representative Color,2021.2.3,MacIntel,38.46153846,,,,,,
,,,,,,,,-0.150892857,0.059821429,1,0,0,0.911,thirdChoice,2,"0.8714, 0.46756, 0.23566",2,0,19,19,16,1,resources/t3mysteryLightOr_hdrOff.png,"0.81569, 0.43922, 0.22353","0.8714, 0.46756, 0.23566","0.91794, 0.40919, 0.093393","0.77255, 0.29804, 0.07451","0.9098, 0.55294, 0.30196","0.88627, 0.50196, 0.23922","0.72941, 0.36471, 0.19608","0.81569, 0.36863, 0.13333",What is the color of the previous image?,2022-03-04_11h12.19.049,Representative Color,2021.2.3,MacIntel,38.46153846,,,,,,
,,,,,,,,,,,,,,,,,,,,,,,,,,,,,,,,,2022-03-04_11h12.19.049,Representative Color,2021.2.3,MacIntel,38.46153846,0,3,3,3,1,resources/trialSixtyFour.xlsx
,,,,,,,,-0.174107143,-0.054464286,1,0,0,1.498,fifthChoice,4,"0.417, 0.55383, 0.14817",6,0,0,0,17,1,resources/t4zpeppers.png,"0.35294, 0.47451, 0.15294","0.48235, 0.63529, 0.13725","0.37942, 0.51262, 0.16068","0.5104, 0.6743, 0.13948","0.41176, 0.59216, 0.11373","0.417, 0.55383, 0.14817","0.38255, 0.53277, 0.1372","0.44713, 0.61369, 0.1255",What is the color of the peppers in the previous image?,2022-03-04_11h12.19.049,Representative Color,2021.2.3,MacIntel,38.46153846,,,,,,
,,,,,,,,-0.052678571,0.158035714,1,0,0,3.26,firstChoice,0,"0.47843, 0.25098, 0.13333",5,0,1,1,6,1,resources/t4Model-L.png,"0.52549, 0.2902, 0.16471","0.61569, 0.30588, 0.18039","0.57757, 0.31686, 0.1774","0.66902, 0.33001, 0.19272","0.47843, 0.25098, 0.13333","0.65882, 0.4, 0.25882","0.61176, 0.36078, 0.23137","0.41961, 0.20784, 0.094118",What is the color of the person's skin in the previous image?,2022-03-04_11h12.19.049,Representative Color,2021.2.3,MacIntel,38.46153846,,,,,,
,,,,,,,,-0.141964286,0.055357143,1,0,0,1.549,thirdChoice,2,"0.50889, 0.63012, 0.83447",7,0,2,2,18,1,resources/t4sky.png,"0.38039, 0.50588, 0.72941","0.60278, 0.71367, 0.87522","0.41001, 0.54883, 0.79353","0.54118, 0.65098, 0.81961","0.48627, 0.6, 0.78824","0.39516, 0.52728, 0.76134","0.50889, 0.63012, 0.83447","0.4494, 0.57426, 0.79097",What is the color of the sky in the previous image?,2022-03-04_11h12.19.049,Representative Color,2021.2.3,MacIntel,38.46153846,,,,,,
,,,,,,,,0.170535714,-0.071428571,1,0,0,3.631,sixthChoice,5,"0.79859, 0.58507, 0.48676",2,0,3,3,4,1,resources/t4Model-B.png,"0.73725, 0.54118, 0.45098","0.79859, 0.58507, 0.48676","0.72531, 0.40323, 0.30464","0.71373, 0.40784, 0.36078","0.8, 0.48235, 0.4","0.68235, 0.44314, 0.33333","0.64706, 0.45882, 0.36471","0.71765, 0.49804, 0.41176",What is the color of the person's skin in the previous image?,2022-03-04_11h12.19.049,Representative Color,2021.2.3,MacIntel,38.46153846,,,,,,
,,,,,,,,0.154464286,-0.047321429,1,0,0,5.931,sixthChoice,5,"0.6564, 0.64356, 0.5619",2,0,4,4,0,1,resources/t4DSC_0016.png,"0.6, 0.58039, 0.4549","0.6564, 0.64356, 0.5619","0.65167, 0.63033, 0.49287","0.60392, 0.59216, 0.50196","0.60392, 0.60392, 0.55686","0.62839, 0.6118, 0.50808","0.62574, 0.60526, 0.47382","0.60418, 0.59802, 0.5294",What is the color of the wine in the previous image?,2022-03-04_11h12.19.049,Representative Color,2021.2.3,MacIntel,38.46153846,,,,,,
,,,,,,,,0.149107143,-0.040178571,1,0,0,2.1,sixthChoice,5,"0.31765, 0.15686, 0.090196",1,0,5,5,9,1,resources/t4Model-O.png,"0.31765, 0.15686, 0.090196","0.36342, 0.17598, 0.098248","0.55928, 0.25965, 0.13367","0.38431, 0.14902, 0.047059","0.22745, 0.098039, 0.05098","0.27161, 0.12707, 0.072951","0.41066, 0.19954, 0.10607","0.30444, 0.12352, 0.051246",What is the color of the person's skin in the previous image?,2022-03-04_11h12.19.049,Representative Color,2021.2.3,MacIntel,38.46153846,,,,,,
,,,,,,,,-0.052678571,0.1625,1,0,0,2.031,firstChoice,0,"0.43529, 0.22353, 0.12157",1,0,6,6,14,1,resources/t4Model-yl.png,"0.43529, 0.22353, 0.12157","0.48425, 0.24604, 0.13103","0.74365, 0.40389, 0.19507","0.56078, 0.26667, 0.1451","0.35294, 0.16078, 0.070588","0.6, 0.35294, 0.22353","0.55294, 0.31373, 0.19216","0.30588, 0.12549, 0.043137",What is the color of the person's skin in the previous image?,2022-03-04_11h12.19.049,Representative Color,2021.2.3,MacIntel,38.46153846,,,,,,
,,,,,,,,-0.055357143,0.158928571,1,0,0,2.249,firstChoice,0,"0.36341, 0.42546, 0.21823",2,0,7,7,19,1,resources/t4zgrass.png,"0.30588, 0.41569, 0.18824","0.36341, 0.42546, 0.21823","0.33318, 0.45547, 0.20282","0.32157, 0.38039, 0.19216","0.27231, 0.37211, 0.15269","0.31422, 0.39807, 0.19031","0.34895, 0.44055, 0.21071","0.28046, 0.35484, 0.15506",What is the color of the grass in the previous image?,2022-03-04_11h12.19.049,Representative Color,2021.2.3,MacIntel,38.46153846,,,,,,
,,,,,,,,0.159821429,-0.067857143,1,0,0,2.461,sixthChoice,5,"0.33333, 0.019608, 0.031373",6,0,8,8,2,1,resources/t4DSC_0025.png,"0.39608, 0.058824, 0.070588","0.21431, 0.034629, 0.057098","0.43656, 0.051112, 0.07439","0.51373, 0.35294, 0.40784","0.21961, 0.086275, 0.12549","0.33333, 0.019608, 0.031373","0.36078, 0.26667, 0.32157","0.48235, 0.22745, 0.26275",What is the color of the wine in the previous image?,2022-03-04_11h12.19.049,Representative Color,2021.2.3,MacIntel,38.46153846,,,,,,
,,,,,,,,0.054464286,0.172321429,1,0,0,1.163,secondChoice,1,"0.73725, 0.52941, 0.38431",1,0,9,9,7,1,resources/t4Model-LC.png,"0.73725, 0.52941, 0.38431","0.79679, 0.57109, 0.41322","0.66488, 0.37758, 0.19682","0.58431, 0.32157, 0.18431","0.61176, 0.34902, 0.18431","0.68627, 0.47059, 0.32941","0.81569, 0.61176, 0.47843","0.63529, 0.42353, 0.27451",What is the color of the person's skin in the previous image?,2022-03-04_11h12.19.049,Representative Color,2021.2.3,MacIntel,38.46153846,,,,,,
,,,,,,,,0.177678571,-0.064285714,1,0,0,1.78,sixthChoice,5,"0.37836, 0.0080068, 0.055199",3,0,10,10,1,1,resources/t4DSC_0021.png,"0.16863, 0.027451, 0.035294","0.34118, 0.023529, 0.05098","0.37836, 0.0080068, 0.055199","0.37255, 0.12157, 0.18431","0.34902, 0.043137, 0.094118","0.41569, 0.23529, 0.29804","0.21569, 0.0078431, 0.019608","0.44314, 0.16863, 0.21961",What is the color of the wine in the previous image?,2022-03-04_11h12.19.049,Representative Color,2021.2.3,MacIntel,38.46153846,,,,,,
,,,,,,,,-0.0375,0.163392857,1,0,0,1.776,firstChoice,0,"0.60784, 0.39216, 0.26667",1,0,11,11,3,1,resources/t4Model-A.png,"0.60784, 0.39216, 0.26667","0.59216, 0.31765, 0.21569","0.66468, 0.4273, 0.28886","0.64755, 0.3451, 0.23286","0.72157, 0.47059, 0.33333","0.42353, 0.18824, 0.094118","0.50588, 0.29804, 0.19608","0.56078, 0.3451, 0.23529",What is the color of the person's skin in the previous image?,2022-03-04_11h12.19.049,Representative Color,2021.2.3,MacIntel,38.46153846,,,,,,
,,,,,,,,-0.2,-0.050892857,1,0,0,3.915,fifthChoice,4,"0.72941, 0.52157, 0.4",1,0,12,12,12,1,resources/t4Model-Y.png,"0.72941, 0.52157, 0.4","0.78972, 0.56355, 0.43105","0.64714, 0.32317, 0.22415","0.62353, 0.34902, 0.22353","0.59216, 0.29804, 0.20784","0.6902, 0.47843, 0.36471","0.80392, 0.60392, 0.49412","0.60784, 0.39216, 0.26275",What is the color of the person's skin in the previous image?,2022-03-04_11h12.19.049,Representative Color,2021.2.3,MacIntel,38.46153846,,,,,,
,,,,,,,,-0.057142857,-0.141071429,1,0,0,2.667,seventhChoice,6,"0.73744, 0.47932, 0.37149",7,0,13,13,8,1,resources/t4Model-M.png,"0.72549, 0.51373, 0.4","0.65098, 0.35294, 0.25098","0.78605, 0.55541, 0.43138","0.68985, 0.4335, 0.3243","0.6843, 0.46832, 0.35448","0.71971, 0.45365, 0.33937","0.73744, 0.47932, 0.37149","0.71412, 0.48874, 0.36979",What is the color of the person's skin in the previous image?,2022-03-04_11h12.19.049,Representative Color,2021.2.3,MacIntel,38.46153846,,,,,,
,,,,,,,,-0.040178571,-0.166071429,1,0,0,1.652,seventhChoice,6,"0.52414, 0.27049, 0.13884",2,0,14,14,5,1,resources/t4Model-J.png,"0.74118, 0.41961, 0.23529","0.52414, 0.27049, 0.13884","0.79714, 0.44966, 0.25005","0.63529, 0.38824, 0.21569","0.70588, 0.43922, 0.2549","0.64314, 0.33725, 0.18431","0.56863, 0.32157, 0.19216","0.4549, 0.23137, 0.12157",What is the color of the person's skin in the previous image?,2022-03-04_11h12.19.049,Representative Color,2021.2.3,MacIntel,38.46153846,,,,,,
,,,,,,,,-0.154464286,0.060714286,1,0,0,2.517,thirdChoice,2,"0.54118, 0.31373, 0.19216",8,0,15,15,11,1,resources/t4Model-R.png,"0.56863, 0.34902, 0.22353","0.54902, 0.27843, 0.15686","0.62375, 0.38114, 0.24213","0.60078, 0.30229, 0.16803","0.48235, 0.24314, 0.13333","0.65098, 0.41176, 0.28235","0.49412, 0.28627, 0.16471","0.54118, 0.31373, 0.19216",What is the color of the person's skin in the previous image?,2022-03-04_11h12.19.049,Representative Color,2021.2.3,MacIntel,38.46153846,,,,,,
,,,,,,,,-0.152678571,0.052678571,1,0,0,1.211,thirdChoice,2,"0.59608, 0.36863, 0.23137",1,0,16,16,13,1,resources/t4Model-ll.png,"0.59608, 0.36863, 0.23137","0.66275, 0.4, 0.21961","0.71741, 0.4315, 0.23453","0.65882, 0.43137, 0.29412","0.62936, 0.38426, 0.22577","0.54887, 0.3251, 0.1898","0.68099, 0.43522, 0.27061","0.58137, 0.34036, 0.18379",What is the color of the person's skin in the previous image?,2022-03-04_11h12.19.049,Representative Color,2021.2.3,MacIntel,38.46153846,,,,,,
,,,,,,,,0.180357143,0.059821429,1,0,0,3.709,fourthChoice,3,"0.81569, 0.43922, 0.22353",1,0,17,17,16,1,resources/t4mysteryLightOr_hdrOff.png,"0.81569, 0.43922, 0.22353","0.8714, 0.46756, 0.23566","0.91794, 0.40919, 0.093393","0.77255, 0.29804, 0.07451","0.9098, 0.55294, 0.30196","0.88627, 0.50196, 0.23922","0.72941, 0.36471, 0.19608","0.81569, 0.36863, 0.13333",What is the color of the tomato in the previous image?,2022-03-04_11h12.19.049,Representative Color,2021.2.3,MacIntel,38.46153846,,,,,,
,,,,,,,,-0.166964286,0.070535714,1,0,0,2.678,thirdChoice,2,"0.69412, 0.47451, 0.35294",1,0,18,18,10,1,resources/t4Model-Ol.png,"0.69412, 0.47451, 0.35294","0.7537, 0.51393, 0.381","0.75045, 0.43076, 0.25995","0.56863, 0.2902, 0.18039","0.52941, 0.28235, 0.15294","0.69412, 0.4, 0.24314","0.79608, 0.58039, 0.45098","0.58431, 0.37255, 0.24706",What is the color of the person's skin in the previous image?,2022-03-04_11h12.19.049,Representative Color,2021.2.3,MacIntel,38.46153846,,,,,,
,,,,,,,,0.04375,0.190178571,1,0,0,2.899,secondChoice,1,"0.82745, 0.62745, 0.21569",4,0,19,19,15,1,resources/t4green22days1_hdrOff.png,"0.68235, 0.57255, 0.20784","0.72549, 0.62353, 0.15686","0.76987, 0.66176, 0.16087","0.82745, 0.62745, 0.21569","0.70588, 0.53725, 0.12549","0.7451, 0.66275, 0.27451","0.60784, 0.52941, 0.18824","0.65098, 0.51373, 0.18824",What is the color of the tomato in the previous image?,2022-03-04_11h12.19.049,Representative Color,2021.2.3,MacIntel,38.46153846,,,,,,
,,,,,,,,,,,,,,,,,,,,,,,,,,,,,,,,,2022-03-04_11h12.19.049,Representative Color,2021.2.3,MacIntel,38.46153846,0,4,4,4,1,resources/trialFull.xlsx
